;content of C:\Users\Bruker\AppData\Local\Temp\92fetmp-50337042.raw - (Diffrac Plus V4 file)
_FILEVERSION = 3
_SAMPLE = Commander Sample ID
_+SAMPLE
_USER = Lab Manager
_GONIOMETER_CODE = 21
_STAGE_CODE = 4
; Goniometer : D8 theta/theta, stage : Open eulerian craddle
_SAMPLE_CHANGER_CODE = 0
_ATTACHMENTS_CODE = 0
_GONIOMETER_RADIUS = 415
_MONOCHROMATOR = 0
; Incident beam monochromator : None
_BETA_FILTER = N
_ANALYZER_CODE = 0
; Received beam analyzer : None
_DATEMEASURED = 09-Dec-2020 13:42:57
_RUNTIME = 12.36928
_WL_UNIT = A
_WL1 = 1.5406
_WL2 = 1.54439
_WL3 = 1.39222
_WLRATIO = 0.5
_ANODE = Cu
_V4_INF_USER = Lab Manager
_V4_INF_SAMPLEID = Commander Sample ID
_V4_INF_CREATOR = V5Converter
_V4_INF_CREATOR_VERSION = 3.3.47.0
_V4_INF_SUBSTRATE = Si (no database)
_V4_INF_LAYER = Si (no database)

; Data for range 1
_DRIVE = COUPLED
_STEPTIME = 76.8
_STEPSIZE = 0.02026
_STEPMODE = C
_START = 20
_THETA = 9.9639
_2THETA = 20
_KHI = -0.25
_PHI = 0
_X = -10.255
_Y = -0.555
_Z = 0.7095
_DETECTORSLIT = out
_AUX2 = 0
_TIMESTARTED = 0
_KV = 40
_MA = 40
_RANGE_WL = 1.5406
_3DPLANE = 0
_V4_PSD2THETA = 9999
_V4_PSDCHANNEL1 = 0
_V4_PSDAPERTURE = 2.083855
_V4_PSDTYPE = 5
_V4_PSDFIXED = 0
_V4_COUNTERS_MASK = 1
_V4_DRIVES_MASK = 0
_V4_ENCODERS_MASK = 0
_2THETACOUNTS = 1
; 2THETA	Cnt2_D1	
20.000000	26.000000	
20.020260	24.000000	
20.040519	24.000000	
20.060779	25.000000	
20.081039	31.000000	
20.101299	17.000000	
20.121558	25.000000	
20.141818	16.000000	
20.162078	19.000000	
20.182337	19.000000	
20.202597	20.000000	
20.222857	15.000000	
20.243116	20.000000	
20.263376	20.000000	
20.283636	24.000000	
20.303896	17.000000	
20.324155	31.000000	
20.344415	27.000000	
20.364675	16.000000	
20.384934	15.000000	
20.405194	21.000000	
20.425454	17.000000	
20.445713	24.000000	
20.465973	15.000000	
20.486233	16.000000	
20.506493	18.000000	
20.526752	14.000000	
20.547012	22.000000	
20.567272	25.000000	
20.587531	15.000000	
20.607791	17.000000	
20.628051	33.000000	
20.648310	18.000000	
20.668570	12.000000	
20.688830	21.000000	
20.709090	27.000000	
20.729349	15.000000	
20.749609	24.000000	
20.769869	26.000000	
20.790128	28.000000	
20.810388	25.000000	
20.830648	23.000000	
20.850907	19.000000	
20.871167	21.000000	
20.891427	24.000000	
20.911687	20.000000	
20.931946	13.000000	
20.952206	14.000000	
20.972466	21.000000	
20.992725	15.000000	
21.012985	17.000000	
21.033245	21.000000	
21.053504	17.000000	
21.073764	17.000000	
21.094024	19.000000	
21.114284	20.000000	
21.134543	21.000000	
21.154803	18.000000	
21.175063	25.000000	
21.195322	16.000000	
21.215582	23.000000	
21.235842	16.000000	
21.256101	23.000000	
21.276361	18.000000	
21.296621	17.000000	
21.316881	16.000000	
21.337140	16.000000	
21.357400	17.000000	
21.377660	27.000000	
21.397919	12.000000	
21.418179	30.000000	
21.438439	19.000000	
21.458698	17.000000	
21.478958	26.000000	
21.499218	16.000000	
21.519478	21.000000	
21.539737	18.000000	
21.559997	20.000000	
21.580257	24.000000	
21.600516	27.000000	
21.620776	23.000000	
21.641036	19.000000	
21.661295	21.000000	
21.681555	20.000000	
21.701815	13.000000	
21.722075	19.000000	
21.742334	21.000000	
21.762594	17.000000	
21.782854	19.000000	
21.803113	17.000000	
21.823373	19.000000	
21.843633	18.000000	
21.863893	22.000000	
21.884152	22.000000	
21.904412	16.000000	
21.924672	24.000000	
21.944931	21.000000	
21.965191	19.000000	
21.985451	19.000000	
22.005710	22.000000	
22.025970	16.000000	
22.046230	29.000000	
22.066490	19.000000	
22.086749	24.000000	
22.107009	31.000000	
22.127269	28.000000	
22.147528	12.000000	
22.167788	22.000000	
22.188048	21.000000	
22.208307	15.000000	
22.228567	24.000000	
22.248827	20.000000	
22.269087	13.000000	
22.289346	17.000000	
22.309606	22.000000	
22.329866	17.000000	
22.350125	20.000000	
22.370385	16.000000	
22.390645	19.000000	
22.410904	22.000000	
22.431164	20.000000	
22.451424	24.000000	
22.471684	17.000000	
22.491943	18.000000	
22.512203	25.000000	
22.532463	22.000000	
22.552722	23.000000	
22.572982	21.000000	
22.593242	23.000000	
22.613501	23.000000	
22.633761	13.000000	
22.654021	20.000000	
22.674281	31.000000	
22.694540	23.000000	
22.714800	17.000000	
22.735060	14.000000	
22.755319	19.000000	
22.775579	18.000000	
22.795839	18.000000	
22.816098	25.000000	
22.836358	20.000000	
22.856618	17.000000	
22.876878	20.000000	
22.897137	18.000000	
22.917397	19.000000	
22.937657	15.000000	
22.957916	8.000000	
22.978176	20.000000	
22.998436	12.000000	
23.018695	22.000000	
23.038955	19.000000	
23.059215	14.000000	
23.079475	10.000000	
23.099734	19.000000	
23.119994	22.000000	
23.140254	23.000000	
23.160513	16.000000	
23.180773	13.000000	
23.201033	19.000000	
23.221292	21.000000	
23.241552	18.000000	
23.261812	15.000000	
23.282072	23.000000	
23.302331	17.000000	
23.322591	18.000000	
23.342851	13.000000	
23.363110	13.000000	
23.383370	23.000000	
23.403630	16.000000	
23.423890	23.000000	
23.444149	16.000000	
23.464409	15.000000	
23.484669	24.000000	
23.504928	18.000000	
23.525188	21.000000	
23.545448	23.000000	
23.565707	12.000000	
23.585967	19.000000	
23.606227	13.000000	
23.626487	21.000000	
23.646746	16.000000	
23.667006	13.000000	
23.687266	23.000000	
23.707525	19.000000	
23.727785	14.000000	
23.748045	15.000000	
23.768304	26.000000	
23.788564	16.000000	
23.808824	16.000000	
23.829084	13.000000	
23.849343	16.000000	
23.869603	11.000000	
23.889863	10.000000	
23.910122	17.000000	
23.930382	25.000000	
23.950642	19.000000	
23.970901	16.000000	
23.991161	17.000000	
24.011421	16.000000	
24.031681	13.000000	
24.051940	18.000000	
24.072200	10.000000	
24.092460	21.000000	
24.112719	21.000000	
24.132979	16.000000	
24.153239	21.000000	
24.173498	22.000000	
24.193758	20.000000	
24.214018	6.000000	
24.234278	20.000000	
24.254537	16.000000	
24.274797	22.000000	
24.295057	16.000000	
24.315316	15.000000	
24.335576	22.000000	
24.355836	17.000000	
24.376095	18.000000	
24.396355	18.000000	
24.416615	16.000000	
24.436875	21.000000	
24.457134	20.000000	
24.477394	16.000000	
24.497654	18.000000	
24.517913	20.000000	
24.538173	21.000000	
24.558433	12.000000	
24.578692	16.000000	
24.598952	18.000000	
24.619212	11.000000	
24.639472	17.000000	
24.659731	27.000000	
24.679991	14.000000	
24.700251	18.000000	
24.720510	19.000000	
24.740770	17.000000	
24.761030	14.000000	
24.781289	14.000000	
24.801549	12.000000	
24.821809	14.000000	
24.842069	20.000000	
24.862328	23.000000	
24.882588	21.000000	
24.902848	20.000000	
24.923107	10.000000	
24.943367	12.000000	
24.963627	17.000000	
24.983886	12.000000	
25.004146	26.000000	
25.024406	17.000000	
25.044666	18.000000	
25.064925	13.000000	
25.085185	23.000000	
25.105445	15.000000	
25.125704	14.000000	
25.145964	15.000000	
25.166224	16.000000	
25.186484	17.000000	
25.206743	21.000000	
25.227003	19.000000	
25.247263	22.000000	
25.267522	13.000000	
25.287782	16.000000	
25.308042	15.000000	
25.328301	19.000000	
25.348561	14.000000	
25.368821	18.000000	
25.389081	9.000000	
25.409340	15.000000	
25.429600	11.000000	
25.449860	21.000000	
25.470119	13.000000	
25.490379	13.000000	
25.510639	10.000000	
25.530898	11.000000	
25.551158	18.000000	
25.571418	28.000000	
25.591678	17.000000	
25.611937	23.000000	
25.632197	13.000000	
25.652457	19.000000	
25.672716	18.000000	
25.692976	15.000000	
25.713236	15.000000	
25.733495	13.000000	
25.753755	16.000000	
25.774015	13.000000	
25.794275	16.000000	
25.814534	20.000000	
25.834794	15.000000	
25.855054	19.000000	
25.875313	24.000000	
25.895573	18.000000	
25.915833	8.000000	
25.936092	20.000000	
25.956352	19.000000	
25.976612	14.000000	
25.996872	11.000000	
26.017131	18.000000	
26.037391	17.000000	
26.057651	17.000000	
26.077910	20.000000	
26.098170	22.000000	
26.118430	25.000000	
26.138689	15.000000	
26.158949	11.000000	
26.179209	19.000000	
26.199469	19.000000	
26.219728	20.000000	
26.239988	10.000000	
26.260248	17.000000	
26.280507	16.000000	
26.300767	16.000000	
26.321027	10.000000	
26.341286	17.000000	
26.361546	13.000000	
26.381806	10.000000	
26.402066	19.000000	
26.422325	18.000000	
26.442585	11.000000	
26.462845	17.000000	
26.483104	15.000000	
26.503364	11.000000	
26.523624	14.000000	
26.543883	20.000000	
26.564143	14.000000	
26.584403	9.000000	
26.604663	18.000000	
26.624922	21.000000	
26.645182	14.000000	
26.665442	14.000000	
26.685701	21.000000	
26.705961	19.000000	
26.726221	10.000000	
26.746481	15.000000	
26.766740	13.000000	
26.787000	14.000000	
26.807260	19.000000	
26.827519	14.000000	
26.847779	7.000000	
26.868039	14.000000	
26.888298	17.000000	
26.908558	11.000000	
26.928818	17.000000	
26.949078	14.000000	
26.969337	18.000000	
26.989597	20.000000	
27.009857	22.000000	
27.030116	12.000000	
27.050376	18.000000	
27.070636	16.000000	
27.090895	18.000000	
27.111155	10.000000	
27.131415	10.000000	
27.151675	12.000000	
27.171934	17.000000	
27.192194	17.000000	
27.212454	12.000000	
27.232713	22.000000	
27.252973	15.000000	
27.273233	11.000000	
27.293492	12.000000	
27.313752	17.000000	
27.334012	21.000000	
27.354272	10.000000	
27.374531	8.000000	
27.394791	17.000000	
27.415051	10.000000	
27.435310	15.000000	
27.455570	12.000000	
27.475830	14.000000	
27.496089	13.000000	
27.516349	16.000000	
27.536609	17.000000	
27.556869	7.000000	
27.577128	15.000000	
27.597388	10.000000	
27.617648	13.000000	
27.637907	12.000000	
27.658167	12.000000	
27.678427	19.000000	
27.698686	17.000000	
27.718946	14.000000	
27.739206	16.000000	
27.759466	12.000000	
27.779725	12.000000	
27.799985	14.000000	
27.820245	17.000000	
27.840504	18.000000	
27.860764	20.000000	
27.881024	14.000000	
27.901283	13.000000	
27.921543	11.000000	
27.941803	11.000000	
27.962063	15.000000	
27.982322	9.000000	
28.002582	10.000000	
28.022842	21.000000	
28.043101	6.000000	
28.063361	12.000000	
28.083621	11.000000	
28.103880	15.000000	
28.124140	12.000000	
28.144400	12.000000	
28.164660	8.000000	
28.184919	21.000000	
28.205179	16.000000	
28.225439	13.000000	
28.245698	13.000000	
28.265958	15.000000	
28.286218	13.000000	
28.306477	12.000000	
28.326737	10.000000	
28.346997	15.000000	
28.367257	13.000000	
28.387516	11.000000	
28.407776	5.000000	
28.428036	12.000000	
28.448295	15.000000	
28.468555	6.000000	
28.488815	17.000000	
28.509075	19.000000	
28.529334	10.000000	
28.549594	15.000000	
28.569854	13.000000	
28.590113	10.000000	
28.610373	12.000000	
28.630633	17.000000	
28.650892	19.000000	
28.671152	12.000000	
28.691412	11.000000	
28.711672	14.000000	
28.731931	19.000000	
28.752191	14.000000	
28.772451	12.000000	
28.792710	9.000000	
28.812970	18.000000	
28.833230	6.000000	
28.853489	10.000000	
28.873749	21.000000	
28.894009	13.000000	
28.914269	10.000000	
28.934528	8.000000	
28.954788	11.000000	
28.975048	12.000000	
28.995307	9.000000	
29.015567	8.000000	
29.035827	13.000000	
29.056086	10.000000	
29.076346	12.000000	
29.096606	12.000000	
29.116866	20.000000	
29.137125	17.000000	
29.157385	14.000000	
29.177645	17.000000	
29.197904	10.000000	
29.218164	11.000000	
29.238424	16.000000	
29.258683	18.000000	
29.278943	18.000000	
29.299203	17.000000	
29.319463	14.000000	
29.339722	11.000000	
29.359982	15.000000	
29.380242	16.000000	
29.400501	14.000000	
29.420761	16.000000	
29.441021	14.000000	
29.461280	17.000000	
29.481540	21.000000	
29.501800	7.000000	
29.522060	9.000000	
29.542319	16.000000	
29.562579	13.000000	
29.582839	14.000000	
29.603098	15.000000	
29.623358	11.000000	
29.643618	13.000000	
29.663877	14.000000	
29.684137	11.000000	
29.704397	9.000000	
29.724657	11.000000	
29.744916	9.000000	
29.765176	12.000000	
29.785436	12.000000	
29.805695	14.000000	
29.825955	10.000000	
29.846215	12.000000	
29.866474	21.000000	
29.886734	12.000000	
29.906994	16.000000	
29.927254	18.000000	
29.947513	11.000000	
29.967773	17.000000	
29.988033	16.000000	
30.008292	12.000000	
30.028552	12.000000	
30.048812	10.000000	
30.069071	17.000000	
30.089331	18.000000	
30.109591	16.000000	
30.129851	19.000000	
30.150110	20.000000	
30.170370	11.000000	
30.190630	14.000000	
30.210889	6.000000	
30.231149	19.000000	
30.251409	22.000000	
30.271669	11.000000	
30.291928	17.000000	
30.312188	18.000000	
30.332448	13.000000	
30.352707	16.000000	
30.372967	26.000000	
30.393227	19.000000	
30.413486	16.000000	
30.433746	13.000000	
30.454006	14.000000	
30.474266	19.000000	
30.494525	12.000000	
30.514785	12.000000	
30.535045	14.000000	
30.555304	22.000000	
30.575564	22.000000	
30.595824	17.000000	
30.616083	22.000000	
30.636343	23.000000	
30.656603	13.000000	
30.676863	26.000000	
30.697122	23.000000	
30.717382	20.000000	
30.737642	23.000000	
30.757901	25.000000	
30.778161	15.000000	
30.798421	20.000000	
30.818680	23.000000	
30.838940	20.000000	
30.859200	19.000000	
30.879460	21.000000	
30.899719	13.000000	
30.919979	29.000000	
30.940239	22.000000	
30.960498	33.000000	
30.980758	22.000000	
31.001018	22.000000	
31.021277	26.000000	
31.041537	28.000000	
31.061797	26.000000	
31.082057	23.000000	
31.102316	30.000000	
31.122576	31.000000	
31.142836	25.000000	
31.163095	44.000000	
31.183355	32.000000	
31.203615	28.000000	
31.223874	35.000000	
31.244134	23.000000	
31.264394	31.000000	
31.284654	32.000000	
31.304913	41.000000	
31.325173	43.000000	
31.345433	28.000000	
31.365692	44.000000	
31.385952	30.000000	
31.406212	34.000000	
31.426471	37.000000	
31.446731	28.000000	
31.466991	35.000000	
31.487251	38.000000	
31.507510	29.000000	
31.527770	41.000000	
31.548030	33.000000	
31.568289	30.000000	
31.588549	25.000000	
31.608809	25.000000	
31.629068	35.000000	
31.649328	40.000000	
31.669588	38.000000	
31.689848	26.000000	
31.710107	33.000000	
31.730367	30.000000	
31.750627	21.000000	
31.770886	25.000000	
31.791146	21.000000	
31.811406	20.000000	
31.831666	19.000000	
31.851925	18.000000	
31.872185	22.000000	
31.892445	17.000000	
31.912704	8.000000	
31.932964	11.000000	
31.953224	16.000000	
31.973483	13.000000	
31.993743	17.000000	
32.014003	23.000000	
32.034263	20.000000	
32.054522	13.000000	
32.074782	17.000000	
32.095042	19.000000	
32.115301	23.000000	
32.135561	21.000000	
32.155821	16.000000	
32.176080	15.000000	
32.196340	15.000000	
32.216600	10.000000	
32.236860	15.000000	
32.257119	14.000000	
32.277379	8.000000	
32.297639	13.000000	
32.317898	16.000000	
32.338158	15.000000	
32.358418	7.000000	
32.378677	9.000000	
32.398937	9.000000	
32.419197	11.000000	
32.439457	12.000000	
32.459716	11.000000	
32.479976	10.000000	
32.500236	6.000000	
32.520495	15.000000	
32.540755	8.000000	
32.561015	14.000000	
32.581274	12.000000	
32.601534	10.000000	
32.621794	9.000000	
32.642054	16.000000	
32.662313	9.000000	
32.682573	7.000000	
32.702833	10.000000	
32.723092	12.000000	
32.743352	11.000000	
32.763612	6.000000	
32.783871	16.000000	
32.804131	8.000000	
32.824391	9.000000	
32.844651	11.000000	
32.864910	8.000000	
32.885170	15.000000	
32.905430	8.000000	
32.925689	8.000000	
32.945949	10.000000	
32.966209	8.000000	
32.986468	11.000000	
33.006728	9.000000	
33.026988	7.000000	
33.047248	7.000000	
33.067507	6.000000	
33.087767	11.000000	
33.108027	12.000000	
33.128286	14.000000	
33.148546	14.000000	
33.168806	12.000000	
33.189065	5.000000	
33.209325	11.000000	
33.229585	7.000000	
33.249845	12.000000	
33.270104	9.000000	
33.290364	8.000000	
33.310624	13.000000	
33.330883	7.000000	
33.351143	8.000000	
33.371403	10.000000	
33.391662	8.000000	
33.411922	9.000000	
33.432182	8.000000	
33.452442	12.000000	
33.472701	12.000000	
33.492961	10.000000	
33.513221	11.000000	
33.533480	10.000000	
33.553740	10.000000	
33.574000	6.000000	
33.594260	10.000000	
33.614519	11.000000	
33.634779	6.000000	
33.655039	8.000000	
33.675298	10.000000	
33.695558	8.000000	
33.715818	8.000000	
33.736077	11.000000	
33.756337	5.000000	
33.776597	17.000000	
33.796857	12.000000	
33.817116	5.000000	
33.837376	7.000000	
33.857636	15.000000	
33.877895	8.000000	
33.898155	8.000000	
33.918415	7.000000	
33.938674	11.000000	
33.958934	14.000000	
33.979194	9.000000	
33.999454	6.000000	
34.019713	15.000000	
34.039973	8.000000	
34.060233	9.000000	
34.080492	8.000000	
34.100752	6.000000	
34.121012	13.000000	
34.141271	10.000000	
34.161531	5.000000	
34.181791	4.000000	
34.202051	8.000000	
34.222310	9.000000	
34.242570	12.000000	
34.262830	7.000000	
34.283089	14.000000	
34.303349	16.000000	
34.323609	8.000000	
34.343868	10.000000	
34.364128	6.000000	
34.384388	19.000000	
34.404648	9.000000	
34.424907	10.000000	
34.445167	10.000000	
34.465427	8.000000	
34.485686	13.000000	
34.505946	6.000000	
34.526206	11.000000	
34.546465	6.000000	
34.566725	12.000000	
34.586985	12.000000	
34.607245	9.000000	
34.627504	6.000000	
34.647764	5.000000	
34.668024	13.000000	
34.688283	4.000000	
34.708543	6.000000	
34.728803	5.000000	
34.749062	7.000000	
34.769322	6.000000	
34.789582	3.000000	
34.809842	12.000000	
34.830101	12.000000	
34.850361	10.000000	
34.870621	5.000000	
34.890880	12.000000	
34.911140	8.000000	
34.931400	7.000000	
34.951659	15.000000	
34.971919	8.000000	
34.992179	6.000000	
35.012439	8.000000	
35.032698	10.000000	
35.052958	8.000000	
35.073218	4.000000	
35.093477	4.000000	
35.113737	9.000000	
35.133997	9.000000	
35.154257	10.000000	
35.174516	7.000000	
35.194776	6.000000	
35.215036	6.000000	
35.235295	6.000000	
35.255555	14.000000	
35.275815	8.000000	
35.296074	4.000000	
35.316334	7.000000	
35.336594	11.000000	
35.356854	9.000000	
35.377113	7.000000	
35.397373	7.000000	
35.417633	8.000000	
35.437892	10.000000	
35.458152	4.000000	
35.478412	8.000000	
35.498671	9.000000	
35.518931	9.000000	
35.539191	8.000000	
35.559451	5.000000	
35.579710	9.000000	
35.599970	7.000000	
35.620230	8.000000	
35.640489	9.000000	
35.660749	7.000000	
35.681009	6.000000	
35.701268	12.000000	
35.721528	8.000000	
35.741788	9.000000	
35.762048	12.000000	
35.782307	4.000000	
35.802567	7.000000	
35.822827	8.000000	
35.843086	7.000000	
35.863346	12.000000	
35.883606	6.000000	
35.903865	11.000000	
35.924125	9.000000	
35.944385	6.000000	
35.964645	9.000000	
35.984904	9.000000	
36.005164	4.000000	
36.025424	10.000000	
36.045683	12.000000	
36.065943	9.000000	
36.086203	9.000000	
36.106462	8.000000	
36.126722	6.000000	
36.146982	10.000000	
36.167242	12.000000	
36.187501	5.000000	
36.207761	9.000000	
36.228021	8.000000	
36.248280	6.000000	
36.268540	11.000000	
36.288800	7.000000	
36.309059	9.000000	
36.329319	9.000000	
36.349579	11.000000	
36.369839	8.000000	
36.390098	12.000000	
36.410358	10.000000	
36.430618	5.000000	
36.450877	11.000000	
36.471137	10.000000	
36.491397	9.000000	
36.511656	8.000000	
36.531916	16.000000	
36.552176	11.000000	
36.572436	9.000000	
36.592695	8.000000	
36.612955	14.000000	
36.633215	7.000000	
36.653474	8.000000	
36.673734	12.000000	
36.693994	12.000000	
36.714253	12.000000	
36.734513	14.000000	
36.754773	14.000000	
36.775033	8.000000	
36.795292	4.000000	
36.815552	13.000000	
36.835812	6.000000	
36.856071	6.000000	
36.876331	7.000000	
36.896591	10.000000	
36.916851	10.000000	
36.937110	8.000000	
36.957370	6.000000	
36.977630	5.000000	
36.997889	15.000000	
37.018149	8.000000	
37.038409	8.000000	
37.058668	13.000000	
37.078928	9.000000	
37.099188	8.000000	
37.119448	8.000000	
37.139707	14.000000	
37.159967	5.000000	
37.180227	12.000000	
37.200486	11.000000	
37.220746	7.000000	
37.241006	11.000000	
37.261265	4.000000	
37.281525	13.000000	
37.301785	5.000000	
37.322045	8.000000	
37.342304	9.000000	
37.362564	6.000000	
37.382824	9.000000	
37.403083	12.000000	
37.423343	7.000000	
37.443603	6.000000	
37.463862	8.000000	
37.484122	8.000000	
37.504382	8.000000	
37.524642	8.000000	
37.544901	14.000000	
37.565161	11.000000	
37.585421	6.000000	
37.605680	10.000000	
37.625940	7.000000	
37.646200	16.000000	
37.666459	16.000000	
37.686719	13.000000	
37.706979	12.000000	
37.727239	6.000000	
37.747498	9.000000	
37.767758	10.000000	
37.788018	14.000000	
37.808277	15.000000	
37.828537	9.000000	
37.848797	18.000000	
37.869056	10.000000	
37.889316	10.000000	
37.909576	12.000000	
37.929836	12.000000	
37.950095	8.000000	
37.970355	10.000000	
37.990615	8.000000	
38.010874	8.000000	
38.031134	14.000000	
38.051394	13.000000	
38.071653	9.000000	
38.091913	11.000000	
38.112173	18.000000	
38.132433	10.000000	
38.152692	15.000000	
38.172952	16.000000	
38.193212	14.000000	
38.213471	10.000000	
38.233731	14.000000	
38.253991	9.000000	
38.274250	15.000000	
38.294510	10.000000	
38.314770	13.000000	
38.335030	11.000000	
38.355289	13.000000	
38.375549	16.000000	
38.395809	23.000000	
38.416068	19.000000	
38.436328	16.000000	
38.456588	14.000000	
38.476847	24.000000	
38.497107	20.000000	
38.517367	27.000000	
38.537627	23.000000	
38.557886	17.000000	
38.578146	20.000000	
38.598406	25.000000	
38.618665	38.000000	
38.638925	27.000000	
38.659185	33.000000	
38.679445	24.000000	
38.699704	20.000000	
38.719964	18.000000	
38.740224	31.000000	
38.760483	32.000000	
38.780743	31.000000	
38.801003	22.000000	
38.821262	22.000000	
38.841522	35.000000	
38.861782	23.000000	
38.882042	28.000000	
38.902301	30.000000	
38.922561	30.000000	
38.942821	27.000000	
38.963080	28.000000	
38.983340	33.000000	
39.003600	33.000000	
39.023859	32.000000	
39.044119	19.000000	
39.064379	23.000000	
39.084639	34.000000	
39.104898	30.000000	
39.125158	30.000000	
39.145418	22.000000	
39.165677	18.000000	
39.185937	35.000000	
39.206197	26.000000	
39.226456	36.000000	
39.246716	30.000000	
39.266976	38.000000	
39.287236	39.000000	
39.307495	46.000000	
39.327755	45.000000	
39.348015	38.000000	
39.368274	25.000000	
39.388534	45.000000	
39.408794	44.000000	
39.429053	55.000000	
39.449313	52.000000	
39.469573	69.000000	
39.489833	60.000000	
39.510092	71.000000	
39.530352	78.000000	
39.550612	72.000000	
39.570871	94.000000	
39.591131	89.000000	
39.611391	120.000000	
39.631650	121.000000	
39.651910	126.000000	
39.672170	178.000000	
39.692430	228.000000	
39.712689	294.000000	
39.732949	331.000000	
39.753209	423.000000	
39.773468	562.000000	
39.793728	776.000000	
39.813988	948.000000	
39.834247	1111.000000	
39.854507	1246.000000	
39.874767	1336.000000	
39.895027	1429.000000	
39.915286	1334.000000	
39.935546	1311.000000	
39.955806	1197.000000	
39.976065	1053.000000	
39.996325	983.000000	
40.016585	741.000000	
40.036844	701.000000	
40.057104	540.000000	
40.077364	426.000000	
40.097624	325.000000	
40.117883	244.000000	
40.138143	199.000000	
40.158403	130.000000	
40.178662	119.000000	
40.198922	113.000000	
40.219182	95.000000	
40.239442	84.000000	
40.259701	72.000000	
40.279961	63.000000	
40.300221	45.000000	
40.320480	54.000000	
40.340740	55.000000	
40.361000	36.000000	
40.381259	40.000000	
40.401519	38.000000	
40.421779	34.000000	
40.442039	29.000000	
40.462298	39.000000	
40.482558	20.000000	
40.502818	30.000000	
40.523077	32.000000	
40.543337	29.000000	
40.563597	23.000000	
40.583856	25.000000	
40.604116	29.000000	
40.624376	30.000000	
40.644636	25.000000	
40.664895	32.000000	
40.685155	22.000000	
40.705415	18.000000	
40.725674	17.000000	
40.745934	17.000000	
40.766194	18.000000	
40.786453	14.000000	
40.806713	13.000000	
40.826973	28.000000	
40.847233	17.000000	
40.867492	21.000000	
40.887752	18.000000	
40.908012	18.000000	
40.928271	12.000000	
40.948531	15.000000	
40.968791	11.000000	
40.989050	8.000000	
41.009310	15.000000	
41.029570	19.000000	
41.049830	14.000000	
41.070089	12.000000	
41.090349	14.000000	
41.110609	8.000000	
41.130868	13.000000	
41.151128	9.000000	
41.171388	10.000000	
41.191647	12.000000	
41.211907	14.000000	
41.232167	12.000000	
41.252427	16.000000	
41.272686	8.000000	
41.292946	9.000000	
41.313206	12.000000	
41.333465	14.000000	
41.353725	11.000000	
41.373985	17.000000	
41.394244	13.000000	
41.414504	7.000000	
41.434764	8.000000	
41.455024	8.000000	
41.475283	11.000000	
41.495543	12.000000	
41.515803	10.000000	
41.536062	5.000000	
41.556322	11.000000	
41.576582	13.000000	
41.596841	14.000000	
41.617101	9.000000	
41.637361	15.000000	
41.657621	9.000000	
41.677880	11.000000	
41.698140	11.000000	
41.718400	10.000000	
41.738659	12.000000	
41.758919	11.000000	
41.779179	13.000000	
41.799438	16.000000	
41.819698	10.000000	
41.839958	11.000000	
41.860218	8.000000	
41.880477	10.000000	
41.900737	11.000000	
41.920997	10.000000	
41.941256	18.000000	
41.961516	7.000000	
41.981776	7.000000	
42.002036	7.000000	
42.022295	9.000000	
42.042555	4.000000	
42.062815	7.000000	
42.083074	13.000000	
42.103334	13.000000	
42.123594	9.000000	
42.143853	13.000000	
42.164113	10.000000	
42.184373	7.000000	
42.204633	12.000000	
42.224892	10.000000	
42.245152	7.000000	
42.265412	6.000000	
42.285671	12.000000	
42.305931	8.000000	
42.326191	7.000000	
42.346450	13.000000	
42.366710	8.000000	
42.386970	13.000000	
42.407230	2.000000	
42.427489	4.000000	
42.447749	11.000000	
42.468009	12.000000	
42.488268	3.000000	
42.508528	6.000000	
42.528788	3.000000	
42.549047	10.000000	
42.569307	8.000000	
42.589567	11.000000	
42.609827	13.000000	
42.630086	15.000000	
42.650346	7.000000	
42.670606	8.000000	
42.690865	15.000000	
42.711125	4.000000	
42.731385	9.000000	
42.751644	11.000000	
42.771904	9.000000	
42.792164	11.000000	
42.812424	13.000000	
42.832683	14.000000	
42.852943	14.000000	
42.873203	14.000000	
42.893462	5.000000	
42.913722	8.000000	
42.933982	9.000000	
42.954241	10.000000	
42.974501	5.000000	
42.994761	9.000000	
43.015021	12.000000	
43.035280	14.000000	
43.055540	8.000000	
43.075800	10.000000	
43.096059	7.000000	
43.116319	10.000000	
43.136579	7.000000	
43.156838	6.000000	
43.177098	9.000000	
43.197358	7.000000	
43.217618	10.000000	
43.237877	5.000000	
43.258137	4.000000	
43.278397	2.000000	
43.298656	1.000000	
43.318916	5.000000	
43.339176	7.000000	
43.359435	11.000000	
43.379695	7.000000	
43.399955	10.000000	
43.420215	7.000000	
43.440474	6.000000	
43.460734	8.000000	
43.480994	7.000000	
43.501253	5.000000	
43.521513	6.000000	
43.541773	6.000000	
43.562033	4.000000	
43.582292	4.000000	
43.602552	9.000000	
43.622812	2.000000	
43.643071	13.000000	
43.663331	7.000000	
43.683591	9.000000	
43.703850	6.000000	
43.724110	7.000000	
43.744370	9.000000	
43.764630	12.000000	
43.784889	8.000000	
43.805149	5.000000	
43.825409	10.000000	
43.845668	5.000000	
43.865928	10.000000	
43.886188	7.000000	
43.906447	8.000000	
43.926707	9.000000	
43.946967	7.000000	
43.967227	9.000000	
43.987486	8.000000	
44.007746	11.000000	
44.028006	6.000000	
44.048265	12.000000	
44.068525	9.000000	
44.088785	6.000000	
44.109044	4.000000	
44.129304	7.000000	
44.149564	7.000000	
44.169824	7.000000	
44.190083	8.000000	
44.210343	15.000000	
44.230603	4.000000	
44.250862	9.000000	
44.271122	9.000000	
44.291382	12.000000	
44.311641	11.000000	
44.331901	9.000000	
44.352161	3.000000	
44.372421	8.000000	
44.392680	9.000000	
44.412940	5.000000	
44.433200	11.000000	
44.453459	13.000000	
44.473719	9.000000	
44.493979	5.000000	
44.514238	7.000000	
44.534498	10.000000	
44.554758	9.000000	
44.575018	4.000000	
44.595277	5.000000	
44.615537	11.000000	
44.635797	9.000000	
44.656056	12.000000	
44.676316	6.000000	
44.696576	7.000000	
44.716835	10.000000	
44.737095	7.000000	
44.757355	8.000000	
44.777615	15.000000	
44.797874	9.000000	
44.818134	13.000000	
44.838394	14.000000	
44.858653	12.000000	
44.878913	10.000000	
44.899173	15.000000	
44.919432	9.000000	
44.939692	13.000000	
44.959952	15.000000	
44.980212	13.000000	
45.000471	11.000000	
45.020731	8.000000	
45.040991	11.000000	
45.061250	21.000000	
45.081510	15.000000	
45.101770	6.000000	
45.122029	12.000000	
45.142289	13.000000	
45.162549	13.000000	
45.182809	13.000000	
45.203068	6.000000	
45.223328	15.000000	
45.243588	18.000000	
45.263847	14.000000	
45.284107	11.000000	
45.304367	14.000000	
45.324627	16.000000	
45.344886	10.000000	
45.365146	14.000000	
45.385406	7.000000	
45.405665	10.000000	
45.425925	15.000000	
45.446185	15.000000	
45.466444	10.000000	
45.486704	10.000000	
45.506964	10.000000	
45.527224	15.000000	
45.547483	11.000000	
45.567743	10.000000	
45.588003	8.000000	
45.608262	11.000000	
45.628522	12.000000	
45.648782	11.000000	
45.669041	17.000000	
45.689301	11.000000	
45.709561	11.000000	
45.729821	17.000000	
45.750080	12.000000	
45.770340	10.000000	
45.790600	11.000000	
45.810859	11.000000	
45.831119	13.000000	
45.851379	13.000000	
45.871638	17.000000	
45.891898	13.000000	
45.912158	19.000000	
45.932418	17.000000	
45.952677	13.000000	
45.972937	15.000000	
45.993197	16.000000	
46.013456	21.000000	
46.033716	17.000000	
46.053976	19.000000	
46.074235	17.000000	
46.094495	28.000000	
46.114755	26.000000	
46.135015	30.000000	
46.155274	32.000000	
46.175534	37.000000	
46.195794	43.000000	
46.216053	40.000000	
46.236313	45.000000	
46.256573	59.000000	
46.276832	79.000000	
46.297092	86.000000	
46.317352	120.000000	
46.337612	142.000000	
46.357871	171.000000	
46.378131	212.000000	
46.398391	238.000000	
46.418650	267.000000	
46.438910	284.000000	
46.459170	339.000000	
46.479429	333.000000	
46.499689	320.000000	
46.519949	287.000000	
46.540209	231.000000	
46.560468	238.000000	
46.580728	210.000000	
46.600988	187.000000	
46.621247	133.000000	
46.641507	120.000000	
46.661767	100.000000	
46.682026	77.000000	
46.702286	52.000000	
46.722546	35.000000	
46.742806	43.000000	
46.763065	33.000000	
46.783325	32.000000	
46.803585	29.000000	
46.823844	33.000000	
46.844104	22.000000	
46.864364	16.000000	
46.884623	12.000000	
46.904883	23.000000	
46.925143	15.000000	
46.945403	5.000000	
46.965662	12.000000	
46.985922	9.000000	
47.006182	13.000000	
47.026441	13.000000	
47.046701	19.000000	
47.066961	12.000000	
47.087221	7.000000	
47.107480	13.000000	
47.127740	11.000000	
47.148000	5.000000	
47.168259	8.000000	
47.188519	12.000000	
47.208779	12.000000	
47.229038	6.000000	
47.249298	7.000000	
47.269558	5.000000	
47.289818	9.000000	
47.310077	9.000000	
47.330337	13.000000	
47.350597	11.000000	
47.370856	9.000000	
47.391116	5.000000	
47.411376	6.000000	
47.431635	9.000000	
47.451895	8.000000	
47.472155	9.000000	
47.492415	4.000000	
47.512674	5.000000	
47.532934	10.000000	
47.553194	8.000000	
47.573453	1.000000	
47.593713	8.000000	
47.613973	10.000000	
47.634232	4.000000	
47.654492	12.000000	
47.674752	11.000000	
47.695012	7.000000	
47.715271	8.000000	
47.735531	4.000000	
47.755791	5.000000	
47.776050	7.000000	
47.796310	6.000000	
47.816570	9.000000	
47.836829	7.000000	
47.857089	8.000000	
47.877349	12.000000	
47.897609	6.000000	
47.917868	6.000000	
47.938128	14.000000	
47.958388	8.000000	
47.978647	14.000000	
47.998907	10.000000	
48.019167	13.000000	
48.039426	6.000000	
48.059686	8.000000	
48.079946	10.000000	
48.100206	12.000000	
48.120465	8.000000	
48.140725	9.000000	
48.160985	11.000000	
48.181244	13.000000	
48.201504	18.000000	
48.221764	12.000000	
48.242023	11.000000	
48.262283	11.000000	
48.282543	9.000000	
48.302803	11.000000	
48.323062	9.000000	
48.343322	12.000000	
48.363582	7.000000	
48.383841	10.000000	
48.404101	7.000000	
48.424361	7.000000	
48.444620	4.000000	
48.464880	4.000000	
48.485140	4.000000	
48.505400	7.000000	
48.525659	10.000000	
48.545919	8.000000	
48.566179	6.000000	
48.586438	4.000000	
48.606698	3.000000	
48.626958	7.000000	
48.647218	9.000000	
48.667477	14.000000	
48.687737	4.000000	
48.707997	3.000000	
48.728256	4.000000	
48.748516	10.000000	
48.768776	9.000000	
48.789035	6.000000	
48.809295	10.000000	
48.829555	4.000000	
48.849815	4.000000	
48.870074	3.000000	
48.890334	6.000000	
48.910594	9.000000	
48.930853	5.000000	
48.951113	5.000000	
48.971373	7.000000	
48.991632	5.000000	
49.011892	3.000000	
49.032152	5.000000	
49.052412	7.000000	
49.072671	8.000000	
49.092931	7.000000	
49.113191	4.000000	
49.133450	8.000000	
49.153710	10.000000	
49.173970	8.000000	
49.194229	8.000000	
49.214489	10.000000	
49.234749	11.000000	
49.255009	6.000000	
49.275268	6.000000	
49.295528	6.000000	
49.315788	6.000000	
49.336047	6.000000	
49.356307	8.000000	
49.376567	6.000000	
49.396826	4.000000	
49.417086	4.000000	
49.437346	2.000000	
49.457606	5.000000	
49.477865	8.000000	
49.498125	2.000000	
49.518385	6.000000	
49.538644	5.000000	
49.558904	6.000000	
49.579164	8.000000	
49.599423	3.000000	
49.619683	6.000000	
49.639943	4.000000	
49.660203	8.000000	
49.680462	1.000000	
49.700722	4.000000	
49.720982	5.000000	
49.741241	2.000000	
49.761501	8.000000	
49.781761	4.000000	
49.802020	4.000000	
49.822280	9.000000	
49.842540	6.000000	
49.862800	13.000000	
49.883059	4.000000	
49.903319	5.000000	
49.923579	7.000000	
49.943838	6.000000	
49.964098	6.000000	
49.984358	3.000000	
50.004617	8.000000	
50.024877	10.000000	
50.045137	6.000000	
50.065397	5.000000	
50.085656	8.000000	
50.105916	4.000000	
50.126176	10.000000	
50.146435	3.000000	
50.166695	6.000000	
50.186955	6.000000	
50.207214	5.000000	
50.227474	8.000000	
50.247734	4.000000	
50.267994	6.000000	
50.288253	3.000000	
50.308513	4.000000	
50.328773	4.000000	
50.349032	3.000000	
50.369292	5.000000	
50.389552	3.000000	
50.409812	6.000000	
50.430071	4.000000	
50.450331	8.000000	
50.470591	4.000000	
50.490850	22.000000	
50.511110	3.000000	
50.531370	2.000000	
50.551629	12.000000	
50.571889	8.000000	
50.592149	8.000000	
50.612409	8.000000	
50.632668	4.000000	
50.652928	3.000000	
50.673188	6.000000	
50.693447	8.000000	
50.713707	5.000000	
50.733967	10.000000	
50.754226	8.000000	
50.774486	8.000000	
50.794746	5.000000	
50.815006	6.000000	
50.835265	7.000000	
50.855525	6.000000	
50.875785	5.000000	
50.896044	8.000000	
50.916304	7.000000	
50.936564	8.000000	
50.956823	4.000000	
50.977083	6.000000	
50.997343	4.000000	
51.017603	6.000000	
51.037862	8.000000	
51.058122	5.000000	
51.078382	8.000000	
51.098641	9.000000	
51.118901	5.000000	
51.139161	4.000000	
51.159420	6.000000	
51.179680	10.000000	
51.199940	6.000000	
51.220200	6.000000	
51.240459	6.000000	
51.260719	3.000000	
51.280979	3.000000	
51.301238	3.000000	
51.321498	8.000000	
51.341758	4.000000	
51.362017	7.000000	
51.382277	10.000000	
51.402537	6.000000	
51.422797	11.000000	
51.443056	6.000000	
51.463316	5.000000	
51.483576	3.000000	
51.503835	5.000000	
51.524095	4.000000	
51.544355	6.000000	
51.564614	3.000000	
51.584874	6.000000	
51.605134	4.000000	
51.625394	5.000000	
51.645653	6.000000	
51.665913	4.000000	
51.686173	6.000000	
51.706432	8.000000	
51.726692	7.000000	
51.746952	12.000000	
51.767211	8.000000	
51.787471	9.000000	
51.807731	5.000000	
51.827991	3.000000	
51.848250	6.000000	
51.868510	4.000000	
51.888770	3.000000	
51.909029	5.000000	
51.929289	8.000000	
51.949549	5.000000	
51.969809	5.000000	
51.990068	9.000000	
52.010328	4.000000	
52.030588	6.000000	
52.050847	2.000000	
52.071107	9.000000	
52.091367	6.000000	
52.111626	4.000000	
52.131886	5.000000	
52.152146	3.000000	
52.172406	6.000000	
52.192665	8.000000	
52.212925	6.000000	
52.233185	6.000000	
52.253444	4.000000	
52.273704	3.000000	
52.293964	7.000000	
52.314223	6.000000	
52.334483	5.000000	
52.354743	4.000000	
52.375003	7.000000	
52.395262	5.000000	
52.415522	5.000000	
52.435782	3.000000	
52.456041	4.000000	
52.476301	8.000000	
52.496561	5.000000	
52.516820	6.000000	
52.537080	5.000000	
52.557340	2.000000	
52.577600	5.000000	
52.597859	1.000000	
52.618119	6.000000	
52.638379	7.000000	
52.658638	4.000000	
52.678898	4.000000	
52.699158	6.000000	
52.719417	8.000000	
52.739677	1.000000	
52.759937	7.000000	
52.780197	3.000000	
52.800456	5.000000	
52.820716	4.000000	
52.840976	5.000000	
52.861235	4.000000	
52.881495	4.000000	
52.901755	5.000000	
52.922014	8.000000	
52.942274	4.000000	
52.962534	7.000000	
52.982794	3.000000	
53.003053	4.000000	
53.023313	10.000000	
53.043573	7.000000	
53.063832	6.000000	
53.084092	2.000000	
53.104352	5.000000	
53.124611	4.000000	
53.144871	8.000000	
53.165131	8.000000	
53.185391	6.000000	
53.205650	10.000000	
53.225910	2.000000	
53.246170	6.000000	
53.266429	3.000000	
53.286689	4.000000	
53.306949	5.000000	
53.327208	4.000000	
53.347468	5.000000	
53.367728	2.000000	
53.387988	6.000000	
53.408247	5.000000	
53.428507	5.000000	
53.448767	5.000000	
53.469026	8.000000	
53.489286	6.000000	
53.509546	4.000000	
53.529805	8.000000	
53.550065	1.000000	
53.570325	10.000000	
53.590585	3.000000	
53.610844	6.000000	
53.631104	12.000000	
53.651364	2.000000	
53.671623	11.000000	
53.691883	6.000000	
53.712143	5.000000	
53.732403	7.000000	
53.752662	0.000000	
53.772922	9.000000	
53.793182	8.000000	
53.813441	5.000000	
53.833701	6.000000	
53.853961	6.000000	
53.874220	4.000000	
53.894480	0.000000	
53.914740	2.000000	
53.935000	5.000000	
53.955259	3.000000	
53.975519	5.000000	
53.995779	4.000000	
54.016038	12.000000	
54.036298	2.000000	
54.056558	8.000000	
54.076817	4.000000	
54.097077	3.000000	
54.117337	11.000000	
54.137597	5.000000	
54.157856	5.000000	
54.178116	3.000000	
54.198376	10.000000	
54.218635	6.000000	
54.238895	2.000000	
54.259155	7.000000	
54.279414	7.000000	
54.299674	7.000000	
54.319934	7.000000	
54.340194	3.000000	
54.360453	8.000000	
54.380713	3.000000	
54.400973	8.000000	
54.421232	8.000000	
54.441492	0.000000	
54.461752	7.000000	
54.482011	5.000000	
54.502271	9.000000	
54.522531	12.000000	
54.542791	9.000000	
54.563050	11.000000	
54.583310	5.000000	
54.603570	5.000000	
54.623829	6.000000	
54.644089	7.000000	
54.664349	5.000000	
54.684608	7.000000	
54.704868	2.000000	
54.725128	7.000000	
54.745388	3.000000	
54.765647	4.000000	
54.785907	4.000000	
54.806167	2.000000	
54.826426	6.000000	
54.846686	7.000000	
54.866946	5.000000	
54.887205	4.000000	
54.907465	1.000000	
54.927725	7.000000	
54.947985	5.000000	
54.968244	7.000000	
54.988504	6.000000	
55.008764	7.000000	
55.029023	1.000000	
55.049283	5.000000	
55.069543	7.000000	
55.089802	3.000000	
55.110062	9.000000	
55.130322	9.000000	
55.150582	8.000000	
55.170841	8.000000	
55.191101	6.000000	
55.211361	5.000000	
55.231620	14.000000	
55.251880	4.000000	
55.272140	10.000000	
55.292399	8.000000	
55.312659	4.000000	
55.332919	7.000000	
55.353179	6.000000	
55.373438	7.000000	
55.393698	6.000000	
55.413958	5.000000	
55.434217	3.000000	
55.454477	9.000000	
55.474737	7.000000	
55.494997	2.000000	
55.515256	4.000000	
55.535516	9.000000	
55.555776	9.000000	
55.576035	8.000000	
55.596295	8.000000	
55.616555	4.000000	
55.636814	7.000000	
55.657074	6.000000	
55.677334	8.000000	
55.697594	2.000000	
55.717853	9.000000	
55.738113	13.000000	
55.758373	7.000000	
55.778632	9.000000	
55.798892	10.000000	
55.819152	4.000000	
55.839411	10.000000	
55.859671	8.000000	
55.879931	8.000000	
55.900191	5.000000	
55.920450	4.000000	
55.940710	10.000000	
55.960970	11.000000	
55.981229	8.000000	
56.001489	4.000000	
56.021749	10.000000	
56.042008	8.000000	
56.062268	9.000000	
56.082528	8.000000	
56.102788	11.000000	
56.123047	8.000000	
56.143307	12.000000	
56.163567	8.000000	
56.183826	12.000000	
56.204086	8.000000	
56.224346	4.000000	
56.244605	6.000000	
56.264865	9.000000	
56.285125	5.000000	
56.305385	10.000000	
56.325644	12.000000	
56.345904	9.000000	
56.366164	8.000000	
56.386423	19.000000	
56.406683	12.000000	
56.426943	16.000000	
56.447202	8.000000	
56.467462	7.000000	
56.487722	9.000000	
56.507982	8.000000	
56.528241	9.000000	
56.548501	4.000000	
56.568761	8.000000	
56.589020	8.000000	
56.609280	7.000000	
56.629540	6.000000	
56.649799	6.000000	
56.670059	8.000000	
56.690319	8.000000	
56.710579	5.000000	
56.730838	4.000000	
56.751098	12.000000	
56.771358	4.000000	
56.791617	10.000000	
56.811877	9.000000	
56.832137	9.000000	
56.852396	4.000000	
56.872656	4.000000	
56.892916	10.000000	
56.913176	2.000000	
56.933435	11.000000	
56.953695	8.000000	
56.973955	5.000000	
56.994214	5.000000	
57.014474	2.000000	
57.034734	3.000000	
57.054994	3.000000	
57.075253	6.000000	
57.095513	7.000000	
57.115773	5.000000	
57.136032	9.000000	
57.156292	5.000000	
57.176552	4.000000	
57.196811	7.000000	
57.217071	10.000000	
57.237331	5.000000	
57.257591	7.000000	
57.277850	3.000000	
57.298110	3.000000	
57.318370	5.000000	
57.338629	11.000000	
57.358889	4.000000	
57.379149	4.000000	
57.399408	7.000000	
57.419668	4.000000	
57.439928	5.000000	
57.460188	7.000000	
57.480447	8.000000	
57.500707	4.000000	
57.520967	4.000000	
57.541226	6.000000	
57.561486	5.000000	
57.581746	7.000000	
57.602005	9.000000	
57.622265	6.000000	
57.642525	4.000000	
57.662785	3.000000	
57.683044	9.000000	
57.703304	3.000000	
57.723564	5.000000	
57.743823	6.000000	
57.764083	7.000000	
57.784343	4.000000	
57.804602	8.000000	
57.824862	5.000000	
57.845122	4.000000	
57.865382	4.000000	
57.885641	8.000000	
57.905901	7.000000	
57.926161	2.000000	
57.946420	5.000000	
57.966680	6.000000	
57.986940	8.000000	
58.007199	3.000000	
58.027459	9.000000	
58.047719	7.000000	
58.067979	4.000000	
58.088238	6.000000	
58.108498	7.000000	
58.128758	8.000000	
58.149017	3.000000	
58.169277	9.000000	
58.189537	4.000000	
58.209796	5.000000	
58.230056	4.000000	
58.250316	4.000000	
58.270576	6.000000	
58.290835	6.000000	
58.311095	4.000000	
58.331355	4.000000	
58.351614	10.000000	
58.371874	6.000000	
58.392134	7.000000	
58.412393	7.000000	
58.432653	7.000000	
58.452913	5.000000	
58.473173	4.000000	
58.493432	7.000000	
58.513692	5.000000	
58.533952	2.000000	
58.554211	3.000000	
58.574471	5.000000	
58.594731	3.000000	
58.614990	0.000000	
58.635250	3.000000	
58.655510	8.000000	
58.675770	5.000000	
58.696029	6.000000	
58.716289	5.000000	
58.736549	3.000000	
58.756808	8.000000	
58.777068	6.000000	
58.797328	7.000000	
58.817588	4.000000	
58.837847	8.000000	
58.858107	4.000000	
58.878367	5.000000	
58.898626	3.000000	
58.918886	4.000000	
58.939146	4.000000	
58.959405	5.000000	
58.979665	8.000000	
58.999925	6.000000	
59.020185	5.000000	
59.040444	4.000000	
59.060704	4.000000	
59.080964	5.000000	
59.101223	5.000000	
59.121483	2.000000	
59.141743	7.000000	
59.162002	4.000000	
59.182262	7.000000	
59.202522	2.000000	
59.222782	4.000000	
59.243041	5.000000	
59.263301	4.000000	
59.283561	8.000000	
59.303820	9.000000	
59.324080	4.000000	
59.344340	5.000000	
59.364599	10.000000	
59.384859	2.000000	
59.405119	5.000000	
59.425379	6.000000	
59.445638	4.000000	
59.465898	3.000000	
59.486158	8.000000	
59.506417	3.000000	
59.526677	5.000000	
59.546937	0.000000	
59.567196	4.000000	
59.587456	6.000000	
59.607716	6.000000	
59.627976	6.000000	
59.648235	4.000000	
59.668495	6.000000	
59.688755	5.000000	
59.709014	5.000000	
59.729274	7.000000	
59.749534	6.000000	
59.769793	3.000000	
59.790053	5.000000	
59.810313	7.000000	
59.830573	5.000000	
59.850832	4.000000	
59.871092	7.000000	
59.891352	3.000000	
59.911611	2.000000	
59.931871	5.000000	
59.952131	8.000000	
59.972390	4.000000	
59.992650	5.000000	
60.012910	7.000000	
60.033170	4.000000	
60.053429	3.000000	
60.073689	5.000000	
60.093949	4.000000	
60.114208	6.000000	
60.134468	6.000000	
60.154728	6.000000	
60.174987	6.000000	
60.195247	3.000000	
60.215507	9.000000	
60.235767	2.000000	
60.256026	5.000000	
60.276286	6.000000	
60.296546	4.000000	
60.316805	5.000000	
60.337065	4.000000	
60.357325	8.000000	
60.377585	2.000000	
60.397844	4.000000	
60.418104	3.000000	
60.438364	6.000000	
60.458623	4.000000	
60.478883	6.000000	
60.499143	10.000000	
60.519402	5.000000	
60.539662	7.000000	
60.559922	10.000000	
60.580182	4.000000	
60.600441	8.000000	
60.620701	4.000000	
60.640961	2.000000	
60.661220	9.000000	
60.681480	8.000000	
60.701740	2.000000	
60.721999	6.000000	
60.742259	6.000000	
60.762519	6.000000	
60.782779	7.000000	
60.803038	1.000000	
60.823298	5.000000	
60.843558	3.000000	
60.863817	3.000000	
60.884077	5.000000	
60.904337	6.000000	
60.924596	5.000000	
60.944856	5.000000	
60.965116	5.000000	
60.985376	5.000000	
61.005635	11.000000	
61.025895	4.000000	
61.046155	5.000000	
61.066414	6.000000	
61.086674	2.000000	
61.106934	6.000000	
61.127193	2.000000	
61.147453	4.000000	
61.167713	4.000000	
61.187973	5.000000	
61.208232	9.000000	
61.228492	7.000000	
61.248752	7.000000	
61.269011	6.000000	
61.289271	7.000000	
61.309531	10.000000	
61.329790	6.000000	
61.350050	12.000000	
61.370310	4.000000	
61.390570	5.000000	
61.410829	11.000000	
61.431089	6.000000	
61.451349	3.000000	
61.471608	6.000000	
61.491868	7.000000	
61.512128	9.000000	
61.532387	7.000000	
61.552647	12.000000	
61.572907	10.000000	
61.593167	13.000000	
61.613426	5.000000	
61.633686	8.000000	
61.653946	21.000000	
61.674205	20.000000	
61.694465	23.000000	
61.714725	20.000000	
61.734984	12.000000	
61.755244	15.000000	
61.775504	18.000000	
61.795764	18.000000	
61.816023	12.000000	
61.836283	6.000000	
61.856543	8.000000	
61.876802	5.000000	
61.897062	3.000000	
61.917322	8.000000	
61.937581	7.000000	
61.957841	12.000000	
61.978101	7.000000	
61.998361	8.000000	
62.018620	8.000000	
62.038880	8.000000	
62.059140	13.000000	
62.079399	4.000000	
62.099659	7.000000	
62.119919	8.000000	
62.140179	5.000000	
62.160438	5.000000	
62.180698	4.000000	
62.200958	6.000000	
62.221217	11.000000	
62.241477	3.000000	
62.261737	4.000000	
62.281996	8.000000	
62.302256	4.000000	
62.322516	4.000000	
62.342776	7.000000	
62.363035	14.000000	
62.383295	5.000000	
62.403555	4.000000	
62.423814	3.000000	
62.444074	9.000000	
62.464334	10.000000	
62.484593	7.000000	
62.504853	4.000000	
62.525113	12.000000	
62.545373	10.000000	
62.565632	5.000000	
62.585892	5.000000	
62.606152	7.000000	
62.626411	3.000000	
62.646671	5.000000	
62.666931	7.000000	
62.687190	6.000000	
62.707450	9.000000	
62.727710	5.000000	
62.747970	9.000000	
62.768229	5.000000	
62.788489	11.000000	
62.808749	5.000000	
62.829008	12.000000	
62.849268	7.000000	
62.869528	5.000000	
62.889787	8.000000	
62.910047	4.000000	
62.930307	6.000000	
62.950567	7.000000	
62.970826	11.000000	
62.991086	10.000000	
63.011346	9.000000	
63.031605	6.000000	
63.051865	7.000000	
63.072125	4.000000	
63.092384	14.000000	
63.112644	8.000000	
63.132904	9.000000	
63.153164	4.000000	
63.173423	5.000000	
63.193683	7.000000	
63.213943	6.000000	
63.234202	9.000000	
63.254462	3.000000	
63.274722	7.000000	
63.294981	10.000000	
63.315241	6.000000	
63.335501	8.000000	
63.355761	8.000000	
63.376020	7.000000	
63.396280	9.000000	
63.416540	6.000000	
63.436799	9.000000	
63.457059	10.000000	
63.477319	7.000000	
63.497578	10.000000	
63.517838	9.000000	
63.538098	8.000000	
63.558358	7.000000	
63.578617	9.000000	
63.598877	4.000000	
63.619137	19.000000	
63.639396	7.000000	
63.659656	12.000000	
63.679916	9.000000	
63.700175	10.000000	
63.720435	7.000000	
63.740695	5.000000	
63.760955	10.000000	
63.781214	7.000000	
63.801474	11.000000	
63.821734	4.000000	
63.841993	7.000000	
63.862253	10.000000	
63.882513	5.000000	
63.902773	12.000000	
63.923032	6.000000	
63.943292	11.000000	
63.963552	10.000000	
63.983811	8.000000	
64.004071	13.000000	
64.024331	9.000000	
64.044590	7.000000	
64.064850	11.000000	
64.085110	12.000000	
64.105370	8.000000	
64.125629	7.000000	
64.145889	10.000000	
64.166149	10.000000	
64.186408	8.000000	
64.206668	12.000000	
64.226928	14.000000	
64.247187	5.000000	
64.267447	8.000000	
64.287707	9.000000	
64.307967	9.000000	
64.328226	11.000000	
64.348486	8.000000	
64.368746	7.000000	
64.389005	11.000000	
64.409265	12.000000	
64.429525	7.000000	
64.449784	12.000000	
64.470044	10.000000	
64.490304	9.000000	
64.510564	14.000000	
64.530823	14.000000	
64.551083	12.000000	
64.571343	11.000000	
64.591602	12.000000	
64.611862	12.000000	
64.632122	9.000000	
64.652381	13.000000	
64.672641	11.000000	
64.692901	12.000000	
64.713161	12.000000	
64.733420	6.000000	
64.753680	7.000000	
64.773940	9.000000	
64.794199	12.000000	
64.814459	8.000000	
64.834719	16.000000	
64.854978	9.000000	
64.875238	12.000000	
64.895498	14.000000	
64.915758	5.000000	
64.936017	12.000000	
64.956277	11.000000	
64.976537	11.000000	
64.996796	7.000000	
65.017056	12.000000	
65.037316	14.000000	
65.057575	10.000000	
65.077835	11.000000	
65.098095	18.000000	
65.118355	14.000000	
65.138614	21.000000	
65.158874	20.000000	
65.179134	21.000000	
65.199393	17.000000	
65.219653	5.000000	
65.239913	19.000000	
65.260172	12.000000	
65.280432	14.000000	
65.300692	17.000000	
65.320952	16.000000	
65.341211	22.000000	
65.361471	14.000000	
65.381731	19.000000	
65.401990	11.000000	
65.422250	14.000000	
65.442510	19.000000	
65.462770	19.000000	
65.483029	19.000000	
65.503289	20.000000	
65.523549	15.000000	
65.543808	19.000000	
65.564068	14.000000	
65.584328	18.000000	
65.604587	24.000000	
65.624847	21.000000	
65.645107	14.000000	
65.665367	23.000000	
65.685626	22.000000	
65.705886	18.000000	
65.726146	24.000000	
65.746405	30.000000	
65.766665	41.000000	
65.786925	47.000000	
65.807184	45.000000	
65.827444	56.000000	
65.847704	50.000000	
65.867964	47.000000	
65.888223	51.000000	
65.908483	45.000000	
65.928743	45.000000	
65.949002	51.000000	
65.969262	37.000000	
65.989522	26.000000	
66.009781	23.000000	
66.030041	25.000000	
66.050301	18.000000	
66.070561	26.000000	
66.090820	22.000000	
66.111080	34.000000	
66.131340	31.000000	
66.151599	27.000000	
66.171859	20.000000	
66.192119	21.000000	
66.212378	20.000000	
66.232638	39.000000	
66.252898	40.000000	
66.273158	23.000000	
66.293417	35.000000	
66.313677	60.000000	
66.333937	82.000000	
66.354196	144.000000	
66.374456	221.000000	
66.394716	364.000000	
66.414975	452.000000	
66.435235	502.000000	
66.455495	561.000000	
66.475755	606.000000	
66.496014	625.000000	
66.516274	663.000000	
66.536534	663.000000	
66.556793	669.000000	
66.577053	561.000000	
66.597313	524.000000	
66.617572	442.000000	
66.637832	423.000000	
66.658092	433.000000	
66.678352	406.000000	
66.698611	404.000000	
66.718871	391.000000	
66.739131	404.000000	
66.759390	395.000000	
66.779650	395.000000	
66.799910	371.000000	
66.820169	366.000000	
66.840429	401.000000	
66.860689	407.000000	
66.880949	416.000000	
66.901208	391.000000	
66.921468	394.000000	
66.941728	403.000000	
66.961987	418.000000	
66.982247	392.000000	
67.002507	406.000000	
67.022766	412.000000	
67.043026	370.000000	
67.063286	395.000000	
67.083546	429.000000	
67.103805	433.000000	
67.124065	446.000000	
67.144325	441.000000	
67.164584	445.000000	
67.184844	450.000000	
67.205104	454.000000	
67.225364	405.000000	
67.245623	457.000000	
67.265883	437.000000	
67.286143	462.000000	
67.306402	424.000000	
67.326662	460.000000	
67.346922	478.000000	
67.367181	471.000000	
67.387441	479.000000	
67.407701	481.000000	
67.427961	507.000000	
67.448220	479.000000	
67.468480	470.000000	
67.488740	488.000000	
67.508999	523.000000	
67.529259	539.000000	
67.549519	556.000000	
67.569778	538.000000	
67.590038	590.000000	
67.610298	645.000000	
67.630558	654.000000	
67.650817	723.000000	
67.671077	698.000000	
67.691337	732.000000	
67.711596	742.000000	
67.731856	745.000000	
67.752116	758.000000	
67.772375	744.000000	
67.792635	778.000000	
67.812895	697.000000	
67.833155	725.000000	
67.853414	694.000000	
67.873674	708.000000	
67.893934	685.000000	
67.914193	699.000000	
67.934453	658.000000	
67.954713	644.000000	
67.974972	647.000000	
67.995232	659.000000	
68.015492	580.000000	
68.035752	634.000000	
68.056011	638.000000	
68.076271	588.000000	
68.096531	645.000000	
68.116790	627.000000	
68.137050	657.000000	
68.157310	634.000000	
68.177569	675.000000	
68.197829	714.000000	
68.218089	657.000000	
68.238349	673.000000	
68.258608	682.000000	
68.278868	720.000000	
68.299128	686.000000	
68.319387	727.000000	
68.339647	723.000000	
68.359907	701.000000	
68.380166	730.000000	
68.400426	788.000000	
68.420686	799.000000	
68.440946	844.000000	
68.461205	860.000000	
68.481465	889.000000	
68.501725	912.000000	
68.521984	1019.000000	
68.542244	1005.000000	
68.562504	1042.000000	
68.582763	1088.000000	
68.603023	1078.000000	
68.623283	1195.000000	
68.643543	1428.000000	
68.663802	1509.000000	
68.684062	1759.000000	
68.704322	1941.000000	
68.724581	2253.000000	
68.744841	2455.000000	
68.765101	2736.000000	
68.785361	2950.000000	
68.805620	3064.000000	
68.825880	3153.000000	
68.846140	3252.000000	
68.866399	3452.000000	
68.886659	3528.000000	
68.906919	3988.000000	
68.927178	4593.000000	
68.947438	5581.000000	
68.967698	7266.000000	
68.987958	10355.000000	
69.008217	17599.000000	
69.028477	42187.000000	
69.048737	91105.000000	
69.068996	120316.000000	
69.089256	133011.000000	
69.109516	137958.000000	
69.129775	137525.000000	
69.150035	135187.000000	
69.170295	126391.000000	
69.190555	96573.000000	
69.210814	59755.000000	
69.231074	47937.000000	
69.251334	57521.000000	
69.271593	64879.000000	
69.291853	68285.000000	
69.312113	68760.000000	
69.332372	67464.000000	
69.352632	65394.000000	
69.372892	56192.000000	
69.393152	37796.000000	
69.413411	19654.000000	
69.433671	9784.000000	
69.453931	5848.000000	
69.474190	4132.000000	
69.494450	3440.000000	
69.514710	2792.000000	
69.534969	2352.000000	
69.555229	2100.000000	
69.575489	1898.000000	
69.595749	1709.000000	
69.616008	1509.000000	
69.636268	1399.000000	
69.656528	1239.000000	
69.676787	1151.000000	
69.697047	1080.000000	
69.717307	1058.000000	
69.737566	1001.000000	
69.757826	925.000000	
69.778086	835.000000	
69.798346	773.000000	
69.818605	725.000000	
69.838865	718.000000	
69.859125	691.000000	
69.879384	681.000000	
69.899644	639.000000	
69.919904	623.000000	
69.940163	583.000000	
69.960423	551.000000	
69.980683	561.000000	
70.000943	499.000000	
70.021202	491.000000	
70.041462	491.000000	
70.061722	463.000000	
70.081981	477.000000	
70.102241	437.000000	
70.122501	430.000000	
70.142760	416.000000	
70.163020	423.000000	
70.183280	410.000000	
70.203540	403.000000	
70.223799	392.000000	
70.244059	346.000000	
70.264319	323.000000	
70.284578	368.000000	
70.304838	289.000000	
70.325098	354.000000	
70.345357	332.000000	
70.365617	312.000000	
70.385877	327.000000	
70.406137	315.000000	
70.426396	312.000000	
70.446656	265.000000	
70.466916	284.000000	
70.487175	277.000000	
70.507435	263.000000	
70.527695	254.000000	
70.547955	243.000000	
70.568214	239.000000	
70.588474	248.000000	
70.608734	236.000000	
70.628993	213.000000	
70.649253	218.000000	
70.669513	205.000000	
70.689772	196.000000	
70.710032	202.000000	
70.730292	200.000000	
70.750552	180.000000	
70.770811	179.000000	
70.791071	145.000000	
70.811331	179.000000	
70.831590	165.000000	
70.851850	162.000000	
70.872110	157.000000	
70.892369	154.000000	
70.912629	171.000000	
70.932889	150.000000	
70.953149	152.000000	
70.973408	144.000000	
70.993668	136.000000	
71.013928	145.000000	
71.034187	143.000000	
71.054447	147.000000	
71.074707	142.000000	
71.094966	136.000000	
71.115226	136.000000	
71.135486	134.000000	
71.155746	142.000000	
71.176005	110.000000	
71.196265	130.000000	
71.216525	127.000000	
71.236784	103.000000	
71.257044	103.000000	
71.277304	106.000000	
71.297563	104.000000	
71.317823	95.000000	
71.338083	84.000000	
71.358343	100.000000	
71.378602	116.000000	
71.398862	89.000000	
71.419122	99.000000	
71.439381	95.000000	
71.459641	100.000000	
71.479901	72.000000	
71.500160	94.000000	
71.520420	85.000000	
71.540680	86.000000	
71.560940	107.000000	
71.581199	105.000000	
71.601459	58.000000	
71.621719	101.000000	
71.641978	65.000000	
71.662238	74.000000	
71.682498	63.000000	
71.702757	82.000000	
71.723017	68.000000	
71.743277	70.000000	
71.763537	75.000000	
71.783796	80.000000	
71.804056	73.000000	
71.824316	65.000000	
71.844575	57.000000	
71.864835	61.000000	
71.885095	79.000000	
71.905354	65.000000	
71.925614	60.000000	
71.945874	75.000000	
71.966134	67.000000	
71.986393	58.000000	
72.006653	60.000000	
72.026913	67.000000	
72.047172	59.000000	
72.067432	60.000000	
72.087692	53.000000	
72.107951	47.000000	
72.128211	56.000000	
72.148471	54.000000	
72.168731	42.000000	
72.188990	60.000000	
72.209250	61.000000	
72.229510	55.000000	
72.249769	52.000000	
72.270029	39.000000	
72.290289	37.000000	
72.310549	54.000000	
72.330808	52.000000	
72.351068	55.000000	
72.371328	55.000000	
72.391587	45.000000	
72.411847	53.000000	
72.432107	51.000000	
72.452366	54.000000	
72.472626	47.000000	
72.492886	42.000000	
72.513146	48.000000	
72.533405	47.000000	
72.553665	49.000000	
72.573925	52.000000	
72.594184	43.000000	
72.614444	36.000000	
72.634704	33.000000	
72.654963	36.000000	
72.675223	31.000000	
72.695483	34.000000	
72.715743	46.000000	
72.736002	29.000000	
72.756262	39.000000	
72.776522	39.000000	
72.796781	49.000000	
72.817041	30.000000	
72.837301	31.000000	
72.857560	43.000000	
72.877820	39.000000	
72.898080	41.000000	
72.918340	40.000000	
72.938599	26.000000	
72.958859	48.000000	
72.979119	29.000000	
72.999378	36.000000	
73.019638	33.000000	
73.039898	39.000000	
73.060157	32.000000	
73.080417	38.000000	
73.100677	23.000000	
73.120937	33.000000	
73.141196	35.000000	
73.161456	28.000000	
73.181716	30.000000	
73.201975	34.000000	
73.222235	33.000000	
73.242495	36.000000	
73.262754	32.000000	
73.283014	37.000000	
73.303274	23.000000	
73.323534	29.000000	
73.343793	28.000000	
73.364053	25.000000	
73.384313	31.000000	
73.404572	32.000000	
73.424832	35.000000	
73.445092	40.000000	
73.465351	25.000000	
73.485611	33.000000	
73.505871	38.000000	
73.526131	23.000000	
73.546390	32.000000	
73.566650	26.000000	
73.586910	21.000000	
73.607169	27.000000	
73.627429	33.000000	
73.647689	20.000000	
73.667948	18.000000	
73.688208	32.000000	
73.708468	33.000000	
73.728728	29.000000	
73.748987	28.000000	
73.769247	26.000000	
73.789507	20.000000	
73.809766	32.000000	
73.830026	19.000000	
73.850286	27.000000	
73.870546	23.000000	
73.890805	32.000000	
73.911065	29.000000	
73.931325	23.000000	
73.951584	25.000000	
73.971844	27.000000	
73.992104	28.000000	
74.012363	23.000000	
74.032623	26.000000	
74.052883	27.000000	
74.073143	19.000000	
74.093402	21.000000	
74.113662	28.000000	
74.133922	21.000000	
74.154181	29.000000	
74.174441	22.000000	
74.194701	13.000000	
74.214960	20.000000	
74.235220	18.000000	
74.255480	21.000000	
74.275740	23.000000	
74.295999	21.000000	
74.316259	21.000000	
74.336519	22.000000	
74.356778	22.000000	
74.377038	13.000000	
74.397298	15.000000	
74.417557	23.000000	
74.437817	27.000000	
74.458077	17.000000	
74.478337	20.000000	
74.498596	24.000000	
74.518856	15.000000	
74.539116	16.000000	
74.559375	21.000000	
74.579635	22.000000	
74.599895	25.000000	
74.620154	17.000000	
74.640414	19.000000	
74.660674	24.000000	
74.680934	17.000000	
74.701193	15.000000	
74.721453	20.000000	
74.741713	18.000000	
74.761972	19.000000	
74.782232	19.000000	
74.802492	18.000000	
74.822751	28.000000	
74.843011	22.000000	
74.863271	25.000000	
74.883531	22.000000	
74.903790	19.000000	
74.924050	23.000000	
74.944310	25.000000	
74.964569	15.000000	
74.984829	22.000000	
75.005089	23.000000	
75.025348	20.000000	
75.045608	26.000000	
75.065868	29.000000	
75.086128	20.000000	
75.106387	19.000000	
75.126647	16.000000	
75.146907	14.000000	
75.167166	10.000000	
75.187426	18.000000	
75.207686	18.000000	
75.227945	24.000000	
75.248205	20.000000	
75.268465	14.000000	
75.288725	15.000000	
75.308984	24.000000	
75.329244	19.000000	
75.349504	23.000000	
75.369763	20.000000	
75.390023	16.000000	
75.410283	20.000000	
75.430542	15.000000	
75.450802	22.000000	
75.471062	21.000000	
75.491322	20.000000	
75.511581	20.000000	
75.531841	32.000000	
75.552101	21.000000	
75.572360	26.000000	
75.592620	15.000000	
75.612880	21.000000	
75.633140	24.000000	
75.653399	20.000000	
75.673659	15.000000	
75.693919	20.000000	
75.714178	16.000000	
75.734438	18.000000	
75.754698	12.000000	
75.774957	15.000000	
75.795217	20.000000	
75.815477	14.000000	
75.835737	14.000000	
75.855996	12.000000	
75.876256	18.000000	
75.896516	19.000000	
75.916775	14.000000	
75.937035	13.000000	
75.957295	20.000000	
75.977554	20.000000	
75.997814	15.000000	
76.018074	25.000000	
76.038334	22.000000	
76.058593	22.000000	
76.078853	17.000000	
76.099113	19.000000	
76.119372	25.000000	
76.139632	25.000000	
76.159892	30.000000	
76.180151	18.000000	
76.200411	24.000000	
76.220671	20.000000	
76.240931	19.000000	
76.261190	23.000000	
76.281450	30.000000	
76.301710	28.000000	
76.321969	24.000000	
76.342229	32.000000	
76.362489	32.000000	
76.382748	25.000000	
76.403008	30.000000	
76.423268	21.000000	
76.443528	21.000000	
76.463787	12.000000	
76.484047	25.000000	
76.504307	13.000000	
76.524566	12.000000	
76.544826	19.000000	
76.565086	13.000000	
76.585345	13.000000	
76.605605	8.000000	
76.625865	15.000000	
76.646125	17.000000	
76.666384	16.000000	
76.686644	13.000000	
76.706904	16.000000	
76.727163	13.000000	
76.747423	17.000000	
76.767683	18.000000	
76.787942	14.000000	
76.808202	14.000000	
76.828462	10.000000	
76.848722	15.000000	
76.868981	11.000000	
76.889241	12.000000	
76.909501	12.000000	
76.929760	18.000000	
76.950020	9.000000	
76.970280	15.000000	
76.990539	9.000000	
77.010799	12.000000	
77.031059	12.000000	
77.051319	15.000000	
77.071578	7.000000	
77.091838	10.000000	
77.112098	11.000000	
77.132357	11.000000	
77.152617	11.000000	
77.172877	10.000000	
77.193137	11.000000	
77.213396	11.000000	
77.233656	9.000000	
77.253916	9.000000	
77.274175	7.000000	
77.294435	18.000000	
77.314695	13.000000	
77.334954	12.000000	
77.355214	9.000000	
77.375474	6.000000	
77.395734	20.000000	
77.415993	18.000000	
77.436253	15.000000	
77.456513	9.000000	
77.476772	11.000000	
77.497032	12.000000	
77.517292	9.000000	
77.537551	15.000000	
77.557811	14.000000	
77.578071	9.000000	
77.598331	11.000000	
77.618590	15.000000	
77.638850	10.000000	
77.659110	6.000000	
77.679369	9.000000	
77.699629	7.000000	
77.719889	4.000000	
77.740148	9.000000	
77.760408	11.000000	
77.780668	11.000000	
77.800928	11.000000	
77.821187	11.000000	
77.841447	11.000000	
77.861707	17.000000	
77.881966	6.000000	
77.902226	8.000000	
77.922486	13.000000	
77.942745	8.000000	
77.963005	14.000000	
77.983265	11.000000	
78.003525	9.000000	
78.023784	9.000000	
78.044044	7.000000	
78.064304	10.000000	
78.084563	8.000000	
78.104823	14.000000	
78.125083	9.000000	
78.145342	13.000000	
78.165602	7.000000	
78.185862	14.000000	
78.206122	13.000000	
78.226381	10.000000	
78.246641	9.000000	
78.266901	14.000000	
78.287160	9.000000	
78.307420	11.000000	
78.327680	19.000000	
78.347939	10.000000	
78.368199	12.000000	
78.388459	12.000000	
78.408719	7.000000	
78.428978	10.000000	
78.449238	11.000000	
78.469498	10.000000	
78.489757	10.000000	
78.510017	13.000000	
78.530277	11.000000	
78.550536	6.000000	
78.570796	10.000000	
78.591056	9.000000	
78.611316	7.000000	
78.631575	4.000000	
78.651835	7.000000	
78.672095	10.000000	
78.692354	5.000000	
78.712614	8.000000	
78.732874	10.000000	
78.753133	8.000000	
78.773393	15.000000	
78.793653	7.000000	
78.813913	4.000000	
78.834172	7.000000	
78.854432	8.000000	
78.874692	6.000000	
78.894951	11.000000	
78.915211	9.000000	
78.935471	7.000000	
78.955731	8.000000	
78.975990	15.000000	
78.996250	6.000000	
79.016510	11.000000	
79.036769	16.000000	
79.057029	9.000000	
79.077289	12.000000	
79.097548	11.000000	
79.117808	8.000000	
79.138068	7.000000	
79.158328	8.000000	
79.178587	3.000000	
79.198847	17.000000	
79.219107	6.000000	
79.239366	14.000000	
79.259626	10.000000	
79.279886	4.000000	
79.300145	8.000000	
79.320405	7.000000	
79.340665	8.000000	
79.360925	9.000000	
79.381184	3.000000	
79.401444	8.000000	
79.421704	10.000000	
79.441963	9.000000	
79.462223	9.000000	
79.482483	3.000000	
79.502742	11.000000	
79.523002	4.000000	
79.543262	8.000000	
79.563522	7.000000	
79.583781	9.000000	
79.604041	11.000000	
79.624301	16.000000	
79.644560	10.000000	
79.664820	3.000000	
79.685080	11.000000	
79.705339	8.000000	
79.725599	8.000000	
79.745859	5.000000	
79.766119	15.000000	
79.786378	8.000000	
79.806638	5.000000	
79.826898	12.000000	
79.847157	8.000000	
79.867417	11.000000	
79.887677	10.000000	
79.907936	12.000000	
79.928196	12.000000	
79.948456	6.000000	
79.968716	8.000000	
79.988975	6.000000	
80.009235	9.000000	
