;content of C:\Users\Bruker\AppData\Local\Temp\92fetmp-49747219.raw - (Diffrac Plus V4 file)
_FILEVERSION = 3
_SAMPLE = Commander Sample ID
_+SAMPLE
_USER = Lab Manager
_GONIOMETER_CODE = 21
_STAGE_CODE = 4
; Goniometer : D8 theta/theta, stage : Open eulerian craddle
_SAMPLE_CHANGER_CODE = 0
_ATTACHMENTS_CODE = 0
_GONIOMETER_RADIUS = 415
_MONOCHROMATOR = 0
; Incident beam monochromator : None
_BETA_FILTER = N
_ANALYZER_CODE = 0
; Received beam analyzer : None
_DATEMEASURED = 09-Dec-2020 15:50:10
_RUNTIME = 12.37974
_WL_UNIT = A
_WL1 = 1.5406
_WL2 = 1.54439
_WL3 = 1.39222
_WLRATIO = 0.5
_ANODE = Cu
_V4_INF_USER = Lab Manager
_V4_INF_SAMPLEID = Commander Sample ID
_V4_INF_CREATOR = V5Converter
_V4_INF_CREATOR_VERSION = 3.3.47.0
_V4_INF_SUBSTRATE = Si (no database)
_V4_INF_LAYER = Si (no database)

; Data for range 1
_DRIVE = COUPLED
_STEPTIME = 76.8
_STEPSIZE = 0.02026
_STEPMODE = C
_START = 20
_THETA = 10
_2THETA = 20
_KHI = -0.4002
_PHI = 0
_X = -9.722
_Y = 0
_Z = 0.682
_DETECTORSLIT = out
_AUX2 = 0
_TIMESTARTED = 0
_KV = 40
_MA = 40
_RANGE_WL = 1.5406
_3DPLANE = 0
_V4_PSD2THETA = 9999
_V4_PSDCHANNEL1 = 0
_V4_PSDAPERTURE = 2.083855
_V4_PSDTYPE = 5
_V4_PSDFIXED = 0
_V4_COUNTERS_MASK = 1
_V4_DRIVES_MASK = 0
_V4_ENCODERS_MASK = 0
_2THETACOUNTS = 1
; 2THETA	Cnt2_D1	
20.000000	26.000000	
20.020260	18.000000	
20.040519	21.000000	
20.060779	16.000000	
20.081039	25.000000	
20.101299	22.000000	
20.121558	22.000000	
20.141818	17.000000	
20.162078	26.000000	
20.182337	24.000000	
20.202597	17.000000	
20.222857	15.000000	
20.243116	25.000000	
20.263376	17.000000	
20.283636	16.000000	
20.303896	15.000000	
20.324155	21.000000	
20.344415	20.000000	
20.364675	19.000000	
20.384934	21.000000	
20.405194	25.000000	
20.425454	17.000000	
20.445713	19.000000	
20.465973	19.000000	
20.486233	22.000000	
20.506493	24.000000	
20.526752	17.000000	
20.547012	20.000000	
20.567272	20.000000	
20.587531	24.000000	
20.607791	16.000000	
20.628051	24.000000	
20.648310	25.000000	
20.668570	34.000000	
20.688830	22.000000	
20.709090	20.000000	
20.729349	17.000000	
20.749609	31.000000	
20.769869	24.000000	
20.790128	21.000000	
20.810388	25.000000	
20.830648	17.000000	
20.850907	22.000000	
20.871167	19.000000	
20.891427	15.000000	
20.911687	27.000000	
20.931946	20.000000	
20.952206	20.000000	
20.972466	15.000000	
20.992725	20.000000	
21.012985	34.000000	
21.033245	33.000000	
21.053504	18.000000	
21.073764	25.000000	
21.094024	23.000000	
21.114284	22.000000	
21.134543	16.000000	
21.154803	29.000000	
21.175063	24.000000	
21.195322	17.000000	
21.215582	26.000000	
21.235842	12.000000	
21.256101	18.000000	
21.276361	24.000000	
21.296621	19.000000	
21.316881	22.000000	
21.337140	24.000000	
21.357400	27.000000	
21.377660	24.000000	
21.397919	24.000000	
21.418179	18.000000	
21.438439	24.000000	
21.458698	28.000000	
21.478958	18.000000	
21.499218	17.000000	
21.519478	17.000000	
21.539737	15.000000	
21.559997	24.000000	
21.580257	20.000000	
21.600516	21.000000	
21.620776	25.000000	
21.641036	21.000000	
21.661295	22.000000	
21.681555	19.000000	
21.701815	17.000000	
21.722075	22.000000	
21.742334	24.000000	
21.762594	37.000000	
21.782854	28.000000	
21.803113	23.000000	
21.823373	27.000000	
21.843633	35.000000	
21.863893	27.000000	
21.884152	26.000000	
21.904412	36.000000	
21.924672	38.000000	
21.944931	31.000000	
21.965191	35.000000	
21.985451	42.000000	
22.005710	31.000000	
22.025970	43.000000	
22.046230	40.000000	
22.066490	56.000000	
22.086749	43.000000	
22.107009	42.000000	
22.127269	41.000000	
22.147528	53.000000	
22.167788	45.000000	
22.188048	60.000000	
22.208307	44.000000	
22.228567	36.000000	
22.248827	53.000000	
22.269087	42.000000	
22.289346	43.000000	
22.309606	47.000000	
22.329866	51.000000	
22.350125	46.000000	
22.370385	38.000000	
22.390645	48.000000	
22.410904	38.000000	
22.431164	39.000000	
22.451424	30.000000	
22.471684	46.000000	
22.491943	34.000000	
22.512203	36.000000	
22.532463	22.000000	
22.552722	36.000000	
22.572982	33.000000	
22.593242	30.000000	
22.613501	38.000000	
22.633761	38.000000	
22.654021	36.000000	
22.674281	21.000000	
22.694540	29.000000	
22.714800	27.000000	
22.735060	19.000000	
22.755319	34.000000	
22.775579	35.000000	
22.795839	25.000000	
22.816098	24.000000	
22.836358	27.000000	
22.856618	25.000000	
22.876878	26.000000	
22.897137	33.000000	
22.917397	31.000000	
22.937657	34.000000	
22.957916	26.000000	
22.978176	29.000000	
22.998436	26.000000	
23.018695	24.000000	
23.038955	25.000000	
23.059215	20.000000	
23.079475	33.000000	
23.099734	24.000000	
23.119994	26.000000	
23.140254	18.000000	
23.160513	18.000000	
23.180773	25.000000	
23.201033	26.000000	
23.221292	20.000000	
23.241552	21.000000	
23.261812	17.000000	
23.282072	21.000000	
23.302331	19.000000	
23.322591	21.000000	
23.342851	19.000000	
23.363110	20.000000	
23.383370	20.000000	
23.403630	27.000000	
23.423890	18.000000	
23.444149	21.000000	
23.464409	21.000000	
23.484669	19.000000	
23.504928	28.000000	
23.525188	18.000000	
23.545448	19.000000	
23.565707	15.000000	
23.585967	21.000000	
23.606227	19.000000	
23.626487	23.000000	
23.646746	13.000000	
23.667006	23.000000	
23.687266	21.000000	
23.707525	20.000000	
23.727785	23.000000	
23.748045	24.000000	
23.768304	13.000000	
23.788564	22.000000	
23.808824	14.000000	
23.829084	22.000000	
23.849343	16.000000	
23.869603	13.000000	
23.889863	14.000000	
23.910122	10.000000	
23.930382	20.000000	
23.950642	24.000000	
23.970901	18.000000	
23.991161	14.000000	
24.011421	16.000000	
24.031681	11.000000	
24.051940	21.000000	
24.072200	24.000000	
24.092460	17.000000	
24.112719	16.000000	
24.132979	12.000000	
24.153239	20.000000	
24.173498	15.000000	
24.193758	16.000000	
24.214018	15.000000	
24.234278	9.000000	
24.254537	19.000000	
24.274797	16.000000	
24.295057	12.000000	
24.315316	17.000000	
24.335576	15.000000	
24.355836	9.000000	
24.376095	12.000000	
24.396355	14.000000	
24.416615	13.000000	
24.436875	18.000000	
24.457134	20.000000	
24.477394	21.000000	
24.497654	21.000000	
24.517913	14.000000	
24.538173	13.000000	
24.558433	11.000000	
24.578692	13.000000	
24.598952	15.000000	
24.619212	19.000000	
24.639472	17.000000	
24.659731	24.000000	
24.679991	18.000000	
24.700251	9.000000	
24.720510	15.000000	
24.740770	16.000000	
24.761030	20.000000	
24.781289	16.000000	
24.801549	18.000000	
24.821809	12.000000	
24.842069	8.000000	
24.862328	17.000000	
24.882588	18.000000	
24.902848	14.000000	
24.923107	7.000000	
24.943367	18.000000	
24.963627	18.000000	
24.983886	27.000000	
25.004146	13.000000	
25.024406	19.000000	
25.044666	18.000000	
25.064925	21.000000	
25.085185	12.000000	
25.105445	12.000000	
25.125704	18.000000	
25.145964	14.000000	
25.166224	15.000000	
25.186484	16.000000	
25.206743	24.000000	
25.227003	20.000000	
25.247263	17.000000	
25.267522	13.000000	
25.287782	18.000000	
25.308042	16.000000	
25.328301	20.000000	
25.348561	23.000000	
25.368821	19.000000	
25.389081	16.000000	
25.409340	12.000000	
25.429600	11.000000	
25.449860	21.000000	
25.470119	10.000000	
25.490379	20.000000	
25.510639	17.000000	
25.530898	12.000000	
25.551158	22.000000	
25.571418	20.000000	
25.591678	21.000000	
25.611937	14.000000	
25.632197	14.000000	
25.652457	20.000000	
25.672716	18.000000	
25.692976	20.000000	
25.713236	16.000000	
25.733495	11.000000	
25.753755	22.000000	
25.774015	17.000000	
25.794275	10.000000	
25.814534	15.000000	
25.834794	19.000000	
25.855054	18.000000	
25.875313	18.000000	
25.895573	10.000000	
25.915833	18.000000	
25.936092	21.000000	
25.956352	16.000000	
25.976612	13.000000	
25.996872	14.000000	
26.017131	13.000000	
26.037391	18.000000	
26.057651	17.000000	
26.077910	18.000000	
26.098170	19.000000	
26.118430	24.000000	
26.138689	13.000000	
26.158949	26.000000	
26.179209	11.000000	
26.199469	25.000000	
26.219728	18.000000	
26.239988	15.000000	
26.260248	23.000000	
26.280507	15.000000	
26.300767	17.000000	
26.321027	20.000000	
26.341286	16.000000	
26.361546	18.000000	
26.381806	22.000000	
26.402066	12.000000	
26.422325	25.000000	
26.442585	19.000000	
26.462845	13.000000	
26.483104	23.000000	
26.503364	6.000000	
26.523624	16.000000	
26.543883	20.000000	
26.564143	20.000000	
26.584403	18.000000	
26.604663	21.000000	
26.624922	15.000000	
26.645182	25.000000	
26.665442	10.000000	
26.685701	20.000000	
26.705961	15.000000	
26.726221	20.000000	
26.746481	17.000000	
26.766740	17.000000	
26.787000	15.000000	
26.807260	23.000000	
26.827519	7.000000	
26.847779	12.000000	
26.868039	21.000000	
26.888298	18.000000	
26.908558	24.000000	
26.928818	20.000000	
26.949078	19.000000	
26.969337	24.000000	
26.989597	17.000000	
27.009857	12.000000	
27.030116	21.000000	
27.050376	16.000000	
27.070636	19.000000	
27.090895	13.000000	
27.111155	25.000000	
27.131415	13.000000	
27.151675	21.000000	
27.171934	14.000000	
27.192194	21.000000	
27.212454	16.000000	
27.232713	11.000000	
27.252973	20.000000	
27.273233	20.000000	
27.293492	18.000000	
27.313752	11.000000	
27.334012	21.000000	
27.354272	13.000000	
27.374531	17.000000	
27.394791	13.000000	
27.415051	15.000000	
27.435310	13.000000	
27.455570	9.000000	
27.475830	13.000000	
27.496089	13.000000	
27.516349	18.000000	
27.536609	17.000000	
27.556869	13.000000	
27.577128	15.000000	
27.597388	9.000000	
27.617648	19.000000	
27.637907	24.000000	
27.658167	20.000000	
27.678427	13.000000	
27.698686	11.000000	
27.718946	16.000000	
27.739206	12.000000	
27.759466	11.000000	
27.779725	15.000000	
27.799985	8.000000	
27.820245	18.000000	
27.840504	20.000000	
27.860764	10.000000	
27.881024	12.000000	
27.901283	17.000000	
27.921543	13.000000	
27.941803	12.000000	
27.962063	12.000000	
27.982322	21.000000	
28.002582	12.000000	
28.022842	20.000000	
28.043101	20.000000	
28.063361	15.000000	
28.083621	18.000000	
28.103880	12.000000	
28.124140	17.000000	
28.144400	13.000000	
28.164660	16.000000	
28.184919	13.000000	
28.205179	13.000000	
28.225439	20.000000	
28.245698	18.000000	
28.265958	11.000000	
28.286218	15.000000	
28.306477	13.000000	
28.326737	12.000000	
28.346997	10.000000	
28.367257	11.000000	
28.387516	17.000000	
28.407776	10.000000	
28.428036	14.000000	
28.448295	5.000000	
28.468555	13.000000	
28.488815	13.000000	
28.509075	14.000000	
28.529334	17.000000	
28.549594	9.000000	
28.569854	13.000000	
28.590113	13.000000	
28.610373	16.000000	
28.630633	23.000000	
28.650892	10.000000	
28.671152	18.000000	
28.691412	15.000000	
28.711672	20.000000	
28.731931	13.000000	
28.752191	20.000000	
28.772451	11.000000	
28.792710	15.000000	
28.812970	18.000000	
28.833230	25.000000	
28.853489	19.000000	
28.873749	30.000000	
28.894009	23.000000	
28.914269	20.000000	
28.934528	27.000000	
28.954788	18.000000	
28.975048	22.000000	
28.995307	16.000000	
29.015567	18.000000	
29.035827	17.000000	
29.056086	27.000000	
29.076346	18.000000	
29.096606	22.000000	
29.116866	23.000000	
29.137125	21.000000	
29.157385	19.000000	
29.177645	16.000000	
29.197904	13.000000	
29.218164	15.000000	
29.238424	15.000000	
29.258683	11.000000	
29.278943	15.000000	
29.299203	12.000000	
29.319463	6.000000	
29.339722	14.000000	
29.359982	12.000000	
29.380242	14.000000	
29.400501	19.000000	
29.420761	21.000000	
29.441021	19.000000	
29.461280	17.000000	
29.481540	17.000000	
29.501800	15.000000	
29.522060	18.000000	
29.542319	14.000000	
29.562579	16.000000	
29.582839	12.000000	
29.603098	8.000000	
29.623358	14.000000	
29.643618	20.000000	
29.663877	15.000000	
29.684137	18.000000	
29.704397	12.000000	
29.724657	24.000000	
29.744916	22.000000	
29.765176	13.000000	
29.785436	12.000000	
29.805695	15.000000	
29.825955	13.000000	
29.846215	21.000000	
29.866474	14.000000	
29.886734	15.000000	
29.906994	19.000000	
29.927254	18.000000	
29.947513	16.000000	
29.967773	6.000000	
29.988033	19.000000	
30.008292	15.000000	
30.028552	13.000000	
30.048812	14.000000	
30.069071	11.000000	
30.089331	12.000000	
30.109591	9.000000	
30.129851	20.000000	
30.150110	17.000000	
30.170370	12.000000	
30.190630	8.000000	
30.210889	20.000000	
30.231149	20.000000	
30.251409	14.000000	
30.271669	17.000000	
30.291928	9.000000	
30.312188	23.000000	
30.332448	21.000000	
30.352707	22.000000	
30.372967	19.000000	
30.393227	12.000000	
30.413486	18.000000	
30.433746	22.000000	
30.454006	18.000000	
30.474266	19.000000	
30.494525	21.000000	
30.514785	17.000000	
30.535045	24.000000	
30.555304	26.000000	
30.575564	19.000000	
30.595824	21.000000	
30.616083	22.000000	
30.636343	22.000000	
30.656603	15.000000	
30.676863	23.000000	
30.697122	18.000000	
30.717382	25.000000	
30.737642	29.000000	
30.757901	30.000000	
30.778161	21.000000	
30.798421	27.000000	
30.818680	28.000000	
30.838940	19.000000	
30.859200	30.000000	
30.879460	39.000000	
30.899719	37.000000	
30.919979	29.000000	
30.940239	25.000000	
30.960498	35.000000	
30.980758	39.000000	
31.001018	39.000000	
31.021277	46.000000	
31.041537	46.000000	
31.061797	56.000000	
31.082057	52.000000	
31.102316	48.000000	
31.122576	64.000000	
31.142836	66.000000	
31.163095	49.000000	
31.183355	61.000000	
31.203615	69.000000	
31.223874	54.000000	
31.244134	91.000000	
31.264394	83.000000	
31.284654	93.000000	
31.304913	95.000000	
31.325173	105.000000	
31.345433	89.000000	
31.365692	107.000000	
31.385952	113.000000	
31.406212	144.000000	
31.426471	131.000000	
31.446731	120.000000	
31.466991	124.000000	
31.487251	140.000000	
31.507510	126.000000	
31.527770	113.000000	
31.548030	129.000000	
31.568289	139.000000	
31.588549	134.000000	
31.608809	132.000000	
31.629068	110.000000	
31.649328	120.000000	
31.669588	102.000000	
31.689848	88.000000	
31.710107	100.000000	
31.730367	115.000000	
31.750627	93.000000	
31.770886	107.000000	
31.791146	98.000000	
31.811406	112.000000	
31.831666	100.000000	
31.851925	89.000000	
31.872185	95.000000	
31.892445	104.000000	
31.912704	102.000000	
31.932964	94.000000	
31.953224	70.000000	
31.973483	88.000000	
31.993743	87.000000	
32.014003	79.000000	
32.034263	79.000000	
32.054522	72.000000	
32.074782	82.000000	
32.095042	74.000000	
32.115301	80.000000	
32.135561	64.000000	
32.155821	83.000000	
32.176080	79.000000	
32.196340	56.000000	
32.216600	66.000000	
32.236860	74.000000	
32.257119	86.000000	
32.277379	70.000000	
32.297639	81.000000	
32.317898	93.000000	
32.338158	62.000000	
32.358418	68.000000	
32.378677	80.000000	
32.398937	64.000000	
32.419197	75.000000	
32.439457	77.000000	
32.459716	61.000000	
32.479976	77.000000	
32.500236	91.000000	
32.520495	87.000000	
32.540755	72.000000	
32.561015	99.000000	
32.581274	101.000000	
32.601534	110.000000	
32.621794	132.000000	
32.642054	124.000000	
32.662313	125.000000	
32.682573	149.000000	
32.702833	166.000000	
32.723092	214.000000	
32.743352	224.000000	
32.763612	263.000000	
32.783871	281.000000	
32.804131	368.000000	
32.824391	454.000000	
32.844651	816.000000	
32.864910	2046.000000	
32.885170	3868.000000	
32.905430	4661.000000	
32.925689	5294.000000	
32.945949	5816.000000	
32.966209	6726.000000	
32.986468	7171.000000	
33.006728	6465.000000	
33.026988	4436.000000	
33.047248	3250.000000	
33.067507	2733.000000	
33.087767	2158.000000	
33.108027	1153.000000	
33.128286	602.000000	
33.148546	279.000000	
33.168806	182.000000	
33.189065	96.000000	
33.209325	93.000000	
33.229585	63.000000	
33.249845	41.000000	
33.270104	57.000000	
33.290364	31.000000	
33.310624	43.000000	
33.330883	32.000000	
33.351143	28.000000	
33.371403	24.000000	
33.391662	23.000000	
33.411922	16.000000	
33.432182	20.000000	
33.452442	17.000000	
33.472701	15.000000	
33.492961	22.000000	
33.513221	15.000000	
33.533480	22.000000	
33.553740	16.000000	
33.574000	16.000000	
33.594260	23.000000	
33.614519	18.000000	
33.634779	17.000000	
33.655039	14.000000	
33.675298	21.000000	
33.695558	10.000000	
33.715818	12.000000	
33.736077	11.000000	
33.756337	19.000000	
33.776597	17.000000	
33.796857	14.000000	
33.817116	14.000000	
33.837376	9.000000	
33.857636	13.000000	
33.877895	6.000000	
33.898155	11.000000	
33.918415	10.000000	
33.938674	20.000000	
33.958934	21.000000	
33.979194	24.000000	
33.999454	12.000000	
34.019713	21.000000	
34.039973	12.000000	
34.060233	19.000000	
34.080492	18.000000	
34.100752	20.000000	
34.121012	14.000000	
34.141271	20.000000	
34.161531	17.000000	
34.181791	18.000000	
34.202051	18.000000	
34.222310	15.000000	
34.242570	20.000000	
34.262830	12.000000	
34.283089	11.000000	
34.303349	20.000000	
34.323609	6.000000	
34.343868	20.000000	
34.364128	18.000000	
34.384388	17.000000	
34.404648	14.000000	
34.424907	15.000000	
34.445167	11.000000	
34.465427	10.000000	
34.485686	7.000000	
34.505946	6.000000	
34.526206	12.000000	
34.546465	14.000000	
34.566725	11.000000	
34.586985	11.000000	
34.607245	10.000000	
34.627504	5.000000	
34.647764	7.000000	
34.668024	10.000000	
34.688283	7.000000	
34.708543	13.000000	
34.728803	15.000000	
34.749062	9.000000	
34.769322	6.000000	
34.789582	10.000000	
34.809842	12.000000	
34.830101	5.000000	
34.850361	6.000000	
34.870621	10.000000	
34.890880	9.000000	
34.911140	7.000000	
34.931400	10.000000	
34.951659	9.000000	
34.971919	9.000000	
34.992179	9.000000	
35.012439	9.000000	
35.032698	11.000000	
35.052958	9.000000	
35.073218	9.000000	
35.093477	7.000000	
35.113737	9.000000	
35.133997	3.000000	
35.154257	8.000000	
35.174516	6.000000	
35.194776	10.000000	
35.215036	8.000000	
35.235295	10.000000	
35.255555	11.000000	
35.275815	8.000000	
35.296074	7.000000	
35.316334	14.000000	
35.336594	17.000000	
35.356854	4.000000	
35.377113	12.000000	
35.397373	9.000000	
35.417633	8.000000	
35.437892	8.000000	
35.458152	7.000000	
35.478412	10.000000	
35.498671	6.000000	
35.518931	6.000000	
35.539191	7.000000	
35.559451	6.000000	
35.579710	6.000000	
35.599970	9.000000	
35.620230	5.000000	
35.640489	8.000000	
35.660749	5.000000	
35.681009	9.000000	
35.701268	10.000000	
35.721528	11.000000	
35.741788	10.000000	
35.762048	9.000000	
35.782307	9.000000	
35.802567	5.000000	
35.822827	9.000000	
35.843086	9.000000	
35.863346	10.000000	
35.883606	10.000000	
35.903865	6.000000	
35.924125	7.000000	
35.944385	7.000000	
35.964645	6.000000	
35.984904	8.000000	
36.005164	7.000000	
36.025424	10.000000	
36.045683	4.000000	
36.065943	9.000000	
36.086203	7.000000	
36.106462	4.000000	
36.126722	6.000000	
36.146982	2.000000	
36.167242	8.000000	
36.187501	8.000000	
36.207761	11.000000	
36.228021	11.000000	
36.248280	4.000000	
36.268540	6.000000	
36.288800	11.000000	
36.309059	7.000000	
36.329319	6.000000	
36.349579	7.000000	
36.369839	12.000000	
36.390098	6.000000	
36.410358	7.000000	
36.430618	7.000000	
36.450877	6.000000	
36.471137	6.000000	
36.491397	6.000000	
36.511656	10.000000	
36.531916	8.000000	
36.552176	6.000000	
36.572436	5.000000	
36.592695	7.000000	
36.612955	8.000000	
36.633215	6.000000	
36.653474	9.000000	
36.673734	8.000000	
36.693994	12.000000	
36.714253	11.000000	
36.734513	8.000000	
36.754773	9.000000	
36.775033	9.000000	
36.795292	6.000000	
36.815552	15.000000	
36.835812	13.000000	
36.856071	4.000000	
36.876331	5.000000	
36.896591	14.000000	
36.916851	6.000000	
36.937110	3.000000	
36.957370	15.000000	
36.977630	10.000000	
36.997889	11.000000	
37.018149	8.000000	
37.038409	11.000000	
37.058668	8.000000	
37.078928	6.000000	
37.099188	5.000000	
37.119448	8.000000	
37.139707	9.000000	
37.159967	9.000000	
37.180227	7.000000	
37.200486	8.000000	
37.220746	11.000000	
37.241006	6.000000	
37.261265	7.000000	
37.281525	6.000000	
37.301785	9.000000	
37.322045	14.000000	
37.342304	5.000000	
37.362564	6.000000	
37.382824	6.000000	
37.403083	10.000000	
37.423343	7.000000	
37.443603	8.000000	
37.463862	9.000000	
37.484122	9.000000	
37.504382	10.000000	
37.524642	6.000000	
37.544901	5.000000	
37.565161	6.000000	
37.585421	11.000000	
37.605680	12.000000	
37.625940	10.000000	
37.646200	6.000000	
37.666459	10.000000	
37.686719	7.000000	
37.706979	5.000000	
37.727239	10.000000	
37.747498	13.000000	
37.767758	7.000000	
37.788018	13.000000	
37.808277	12.000000	
37.828537	2.000000	
37.848797	13.000000	
37.869056	14.000000	
37.889316	12.000000	
37.909576	8.000000	
37.929836	7.000000	
37.950095	12.000000	
37.970355	12.000000	
37.990615	11.000000	
38.010874	10.000000	
38.031134	16.000000	
38.051394	13.000000	
38.071653	10.000000	
38.091913	7.000000	
38.112173	11.000000	
38.132433	9.000000	
38.152692	6.000000	
38.172952	5.000000	
38.193212	10.000000	
38.213471	10.000000	
38.233731	13.000000	
38.253991	18.000000	
38.274250	5.000000	
38.294510	21.000000	
38.314770	17.000000	
38.335030	13.000000	
38.355289	14.000000	
38.375549	21.000000	
38.395809	13.000000	
38.416068	23.000000	
38.436328	7.000000	
38.456588	18.000000	
38.476847	16.000000	
38.497107	15.000000	
38.517367	11.000000	
38.537627	19.000000	
38.557886	19.000000	
38.578146	33.000000	
38.598406	22.000000	
38.618665	23.000000	
38.638925	21.000000	
38.659185	26.000000	
38.679445	26.000000	
38.699704	31.000000	
38.719964	23.000000	
38.740224	33.000000	
38.760483	28.000000	
38.780743	39.000000	
38.801003	25.000000	
38.821262	26.000000	
38.841522	27.000000	
38.861782	32.000000	
38.882042	28.000000	
38.902301	29.000000	
38.922561	28.000000	
38.942821	37.000000	
38.963080	25.000000	
38.983340	25.000000	
39.003600	19.000000	
39.023859	22.000000	
39.044119	33.000000	
39.064379	20.000000	
39.084639	22.000000	
39.104898	22.000000	
39.125158	17.000000	
39.145418	19.000000	
39.165677	16.000000	
39.185937	13.000000	
39.206197	13.000000	
39.226456	26.000000	
39.246716	16.000000	
39.266976	18.000000	
39.287236	14.000000	
39.307495	16.000000	
39.327755	12.000000	
39.348015	12.000000	
39.368274	10.000000	
39.388534	6.000000	
39.408794	15.000000	
39.429053	12.000000	
39.449313	10.000000	
39.469573	15.000000	
39.489833	11.000000	
39.510092	11.000000	
39.530352	6.000000	
39.550612	9.000000	
39.570871	9.000000	
39.591131	6.000000	
39.611391	6.000000	
39.631650	7.000000	
39.651910	13.000000	
39.672170	7.000000	
39.692430	6.000000	
39.712689	5.000000	
39.732949	9.000000	
39.753209	4.000000	
39.773468	10.000000	
39.793728	11.000000	
39.813988	6.000000	
39.834247	11.000000	
39.854507	4.000000	
39.874767	7.000000	
39.895027	5.000000	
39.915286	11.000000	
39.935546	5.000000	
39.955806	7.000000	
39.976065	3.000000	
39.996325	6.000000	
40.016585	8.000000	
40.036844	10.000000	
40.057104	11.000000	
40.077364	13.000000	
40.097624	13.000000	
40.117883	6.000000	
40.138143	8.000000	
40.158403	5.000000	
40.178662	3.000000	
40.198922	13.000000	
40.219182	3.000000	
40.239442	6.000000	
40.259701	16.000000	
40.279961	7.000000	
40.300221	6.000000	
40.320480	14.000000	
40.340740	6.000000	
40.361000	11.000000	
40.381259	12.000000	
40.401519	6.000000	
40.421779	13.000000	
40.442039	8.000000	
40.462298	3.000000	
40.482558	6.000000	
40.502818	11.000000	
40.523077	9.000000	
40.543337	11.000000	
40.563597	7.000000	
40.583856	8.000000	
40.604116	9.000000	
40.624376	8.000000	
40.644636	5.000000	
40.664895	7.000000	
40.685155	10.000000	
40.705415	5.000000	
40.725674	4.000000	
40.745934	6.000000	
40.766194	15.000000	
40.786453	6.000000	
40.806713	7.000000	
40.826973	10.000000	
40.847233	6.000000	
40.867492	11.000000	
40.887752	8.000000	
40.908012	11.000000	
40.928271	6.000000	
40.948531	5.000000	
40.968791	9.000000	
40.989050	9.000000	
41.009310	12.000000	
41.029570	7.000000	
41.049830	11.000000	
41.070089	13.000000	
41.090349	9.000000	
41.110609	10.000000	
41.130868	3.000000	
41.151128	13.000000	
41.171388	1.000000	
41.191647	11.000000	
41.211907	10.000000	
41.232167	10.000000	
41.252427	3.000000	
41.272686	11.000000	
41.292946	8.000000	
41.313206	8.000000	
41.333465	4.000000	
41.353725	7.000000	
41.373985	9.000000	
41.394244	10.000000	
41.414504	4.000000	
41.434764	11.000000	
41.455024	8.000000	
41.475283	5.000000	
41.495543	13.000000	
41.515803	8.000000	
41.536062	7.000000	
41.556322	5.000000	
41.576582	11.000000	
41.596841	6.000000	
41.617101	4.000000	
41.637361	13.000000	
41.657621	7.000000	
41.677880	11.000000	
41.698140	10.000000	
41.718400	7.000000	
41.738659	3.000000	
41.758919	8.000000	
41.779179	8.000000	
41.799438	6.000000	
41.819698	14.000000	
41.839958	8.000000	
41.860218	5.000000	
41.880477	10.000000	
41.900737	9.000000	
41.920997	5.000000	
41.941256	9.000000	
41.961516	6.000000	
41.981776	12.000000	
42.002036	10.000000	
42.022295	9.000000	
42.042555	13.000000	
42.062815	7.000000	
42.083074	6.000000	
42.103334	6.000000	
42.123594	8.000000	
42.143853	6.000000	
42.164113	6.000000	
42.184373	6.000000	
42.204633	5.000000	
42.224892	11.000000	
42.245152	10.000000	
42.265412	7.000000	
42.285671	8.000000	
42.305931	12.000000	
42.326191	2.000000	
42.346450	4.000000	
42.366710	3.000000	
42.386970	10.000000	
42.407230	10.000000	
42.427489	7.000000	
42.447749	10.000000	
42.468009	4.000000	
42.488268	3.000000	
42.508528	6.000000	
42.528788	6.000000	
42.549047	7.000000	
42.569307	8.000000	
42.589567	6.000000	
42.609827	11.000000	
42.630086	6.000000	
42.650346	7.000000	
42.670606	9.000000	
42.690865	6.000000	
42.711125	9.000000	
42.731385	7.000000	
42.751644	2.000000	
42.771904	8.000000	
42.792164	5.000000	
42.812424	5.000000	
42.832683	4.000000	
42.852943	6.000000	
42.873203	13.000000	
42.893462	9.000000	
42.913722	12.000000	
42.933982	9.000000	
42.954241	10.000000	
42.974501	10.000000	
42.994761	15.000000	
43.015021	8.000000	
43.035280	11.000000	
43.055540	6.000000	
43.075800	13.000000	
43.096059	6.000000	
43.116319	14.000000	
43.136579	6.000000	
43.156838	8.000000	
43.177098	2.000000	
43.197358	13.000000	
43.217618	12.000000	
43.237877	14.000000	
43.258137	7.000000	
43.278397	13.000000	
43.298656	10.000000	
43.318916	17.000000	
43.339176	10.000000	
43.359435	12.000000	
43.379695	9.000000	
43.399955	8.000000	
43.420215	9.000000	
43.440474	9.000000	
43.460734	16.000000	
43.480994	15.000000	
43.501253	16.000000	
43.521513	17.000000	
43.541773	9.000000	
43.562033	9.000000	
43.582292	13.000000	
43.602552	12.000000	
43.622812	16.000000	
43.643071	16.000000	
43.663331	15.000000	
43.683591	17.000000	
43.703850	16.000000	
43.724110	11.000000	
43.744370	10.000000	
43.764630	11.000000	
43.784889	15.000000	
43.805149	18.000000	
43.825409	17.000000	
43.845668	21.000000	
43.865928	14.000000	
43.886188	16.000000	
43.906447	16.000000	
43.926707	14.000000	
43.946967	17.000000	
43.967227	18.000000	
43.987486	23.000000	
44.007746	19.000000	
44.028006	21.000000	
44.048265	28.000000	
44.068525	27.000000	
44.088785	17.000000	
44.109044	24.000000	
44.129304	30.000000	
44.149564	20.000000	
44.169824	20.000000	
44.190083	28.000000	
44.210343	18.000000	
44.230603	25.000000	
44.250862	30.000000	
44.271122	22.000000	
44.291382	23.000000	
44.311641	30.000000	
44.331901	30.000000	
44.352161	28.000000	
44.372421	28.000000	
44.392680	37.000000	
44.412940	25.000000	
44.433200	39.000000	
44.453459	26.000000	
44.473719	42.000000	
44.493979	38.000000	
44.514238	33.000000	
44.534498	38.000000	
44.554758	37.000000	
44.575018	40.000000	
44.595277	31.000000	
44.615537	49.000000	
44.635797	29.000000	
44.656056	42.000000	
44.676316	46.000000	
44.696576	34.000000	
44.716835	42.000000	
44.737095	49.000000	
44.757355	44.000000	
44.777615	28.000000	
44.797874	35.000000	
44.818134	49.000000	
44.838394	50.000000	
44.858653	41.000000	
44.878913	42.000000	
44.899173	38.000000	
44.919432	43.000000	
44.939692	38.000000	
44.959952	40.000000	
44.980212	38.000000	
45.000471	39.000000	
45.020731	32.000000	
45.040991	47.000000	
45.061250	44.000000	
45.081510	34.000000	
45.101770	40.000000	
45.122029	47.000000	
45.142289	40.000000	
45.162549	37.000000	
45.182809	34.000000	
45.203068	44.000000	
45.223328	35.000000	
45.243588	44.000000	
45.263847	32.000000	
45.284107	35.000000	
45.304367	41.000000	
45.324627	39.000000	
45.344886	47.000000	
45.365146	31.000000	
45.385406	44.000000	
45.405665	31.000000	
45.425925	29.000000	
45.446185	24.000000	
45.466444	29.000000	
45.486704	23.000000	
45.506964	18.000000	
45.527224	21.000000	
45.547483	25.000000	
45.567743	34.000000	
45.588003	20.000000	
45.608262	18.000000	
45.628522	20.000000	
45.648782	15.000000	
45.669041	14.000000	
45.689301	16.000000	
45.709561	24.000000	
45.729821	18.000000	
45.750080	22.000000	
45.770340	13.000000	
45.790600	20.000000	
45.810859	14.000000	
45.831119	19.000000	
45.851379	7.000000	
45.871638	15.000000	
45.891898	8.000000	
45.912158	10.000000	
45.932418	6.000000	
45.952677	8.000000	
45.972937	9.000000	
45.993197	13.000000	
46.013456	15.000000	
46.033716	10.000000	
46.053976	16.000000	
46.074235	11.000000	
46.094495	10.000000	
46.114755	16.000000	
46.135015	12.000000	
46.155274	11.000000	
46.175534	14.000000	
46.195794	11.000000	
46.216053	11.000000	
46.236313	12.000000	
46.256573	12.000000	
46.276832	5.000000	
46.297092	7.000000	
46.317352	8.000000	
46.337612	10.000000	
46.357871	16.000000	
46.378131	15.000000	
46.398391	10.000000	
46.418650	7.000000	
46.438910	9.000000	
46.459170	6.000000	
46.479429	6.000000	
46.499689	10.000000	
46.519949	8.000000	
46.540209	7.000000	
46.560468	6.000000	
46.580728	6.000000	
46.600988	5.000000	
46.621247	11.000000	
46.641507	11.000000	
46.661767	5.000000	
46.682026	10.000000	
46.702286	4.000000	
46.722546	5.000000	
46.742806	3.000000	
46.763065	7.000000	
46.783325	8.000000	
46.803585	8.000000	
46.823844	6.000000	
46.844104	4.000000	
46.864364	10.000000	
46.884623	12.000000	
46.904883	13.000000	
46.925143	7.000000	
46.945403	5.000000	
46.965662	7.000000	
46.985922	10.000000	
47.006182	6.000000	
47.026441	7.000000	
47.046701	6.000000	
47.066961	6.000000	
47.087221	6.000000	
47.107480	9.000000	
47.127740	9.000000	
47.148000	6.000000	
47.168259	8.000000	
47.188519	7.000000	
47.208779	5.000000	
47.229038	6.000000	
47.249298	7.000000	
47.269558	6.000000	
47.289818	9.000000	
47.310077	13.000000	
47.330337	8.000000	
47.350597	5.000000	
47.370856	9.000000	
47.391116	8.000000	
47.411376	7.000000	
47.431635	9.000000	
47.451895	6.000000	
47.472155	7.000000	
47.492415	5.000000	
47.512674	4.000000	
47.532934	5.000000	
47.553194	2.000000	
47.573453	8.000000	
47.593713	6.000000	
47.613973	9.000000	
47.634232	7.000000	
47.654492	7.000000	
47.674752	8.000000	
47.695012	5.000000	
47.715271	2.000000	
47.735531	2.000000	
47.755791	8.000000	
47.776050	6.000000	
47.796310	5.000000	
47.816570	3.000000	
47.836829	8.000000	
47.857089	7.000000	
47.877349	7.000000	
47.897609	7.000000	
47.917868	8.000000	
47.938128	2.000000	
47.958388	13.000000	
47.978647	6.000000	
47.998907	6.000000	
48.019167	4.000000	
48.039426	5.000000	
48.059686	3.000000	
48.079946	6.000000	
48.100206	2.000000	
48.120465	6.000000	
48.140725	7.000000	
48.160985	5.000000	
48.181244	10.000000	
48.201504	5.000000	
48.221764	6.000000	
48.242023	7.000000	
48.262283	6.000000	
48.282543	12.000000	
48.302803	4.000000	
48.323062	6.000000	
48.343322	5.000000	
48.363582	6.000000	
48.383841	12.000000	
48.404101	5.000000	
48.424361	8.000000	
48.444620	6.000000	
48.464880	9.000000	
48.485140	12.000000	
48.505400	6.000000	
48.525659	7.000000	
48.545919	7.000000	
48.566179	10.000000	
48.586438	5.000000	
48.606698	3.000000	
48.626958	8.000000	
48.647218	5.000000	
48.667477	2.000000	
48.687737	7.000000	
48.707997	5.000000	
48.728256	4.000000	
48.748516	8.000000	
48.768776	7.000000	
48.789035	10.000000	
48.809295	2.000000	
48.829555	9.000000	
48.849815	8.000000	
48.870074	4.000000	
48.890334	6.000000	
48.910594	6.000000	
48.930853	7.000000	
48.951113	3.000000	
48.971373	3.000000	
48.991632	4.000000	
49.011892	10.000000	
49.032152	6.000000	
49.052412	4.000000	
49.072671	6.000000	
49.092931	1.000000	
49.113191	8.000000	
49.133450	14.000000	
49.153710	6.000000	
49.173970	7.000000	
49.194229	7.000000	
49.214489	6.000000	
49.234749	6.000000	
49.255009	5.000000	
49.275268	4.000000	
49.295528	10.000000	
49.315788	5.000000	
49.336047	5.000000	
49.356307	4.000000	
49.376567	2.000000	
49.396826	5.000000	
49.417086	4.000000	
49.437346	4.000000	
49.457606	4.000000	
49.477865	4.000000	
49.498125	8.000000	
49.518385	5.000000	
49.538644	10.000000	
49.558904	6.000000	
49.579164	2.000000	
49.599423	2.000000	
49.619683	4.000000	
49.639943	8.000000	
49.660203	6.000000	
49.680462	8.000000	
49.700722	6.000000	
49.720982	1.000000	
49.741241	5.000000	
49.761501	4.000000	
49.781761	4.000000	
49.802020	6.000000	
49.822280	7.000000	
49.842540	5.000000	
49.862800	3.000000	
49.883059	6.000000	
49.903319	9.000000	
49.923579	7.000000	
49.943838	1.000000	
49.964098	3.000000	
49.984358	7.000000	
50.004617	7.000000	
50.024877	8.000000	
50.045137	2.000000	
50.065397	5.000000	
50.085656	3.000000	
50.105916	10.000000	
50.126176	8.000000	
50.146435	7.000000	
50.166695	13.000000	
50.186955	6.000000	
50.207214	1.000000	
50.227474	7.000000	
50.247734	7.000000	
50.267994	9.000000	
50.288253	6.000000	
50.308513	6.000000	
50.328773	5.000000	
50.349032	6.000000	
50.369292	9.000000	
50.389552	10.000000	
50.409812	6.000000	
50.430071	9.000000	
50.450331	5.000000	
50.470591	4.000000	
50.490850	2.000000	
50.511110	15.000000	
50.531370	8.000000	
50.551629	8.000000	
50.571889	9.000000	
50.592149	12.000000	
50.612409	9.000000	
50.632668	9.000000	
50.652928	10.000000	
50.673188	13.000000	
50.693447	9.000000	
50.713707	12.000000	
50.733967	18.000000	
50.754226	22.000000	
50.774486	15.000000	
50.794746	7.000000	
50.815006	10.000000	
50.835265	9.000000	
50.855525	8.000000	
50.875785	8.000000	
50.896044	13.000000	
50.916304	7.000000	
50.936564	17.000000	
50.956823	12.000000	
50.977083	10.000000	
50.997343	17.000000	
51.017603	9.000000	
51.037862	12.000000	
51.058122	6.000000	
51.078382	9.000000	
51.098641	6.000000	
51.118901	13.000000	
51.139161	8.000000	
51.159420	10.000000	
51.179680	10.000000	
51.199940	4.000000	
51.220200	4.000000	
51.240459	7.000000	
51.260719	9.000000	
51.280979	6.000000	
51.301238	6.000000	
51.321498	8.000000	
51.341758	3.000000	
51.362017	10.000000	
51.382277	10.000000	
51.402537	9.000000	
51.422797	8.000000	
51.443056	7.000000	
51.463316	2.000000	
51.483576	4.000000	
51.503835	6.000000	
51.524095	12.000000	
51.544355	6.000000	
51.564614	6.000000	
51.584874	5.000000	
51.605134	6.000000	
51.625394	4.000000	
51.645653	2.000000	
51.665913	4.000000	
51.686173	7.000000	
51.706432	8.000000	
51.726692	5.000000	
51.746952	2.000000	
51.767211	7.000000	
51.787471	3.000000	
51.807731	6.000000	
51.827991	7.000000	
51.848250	4.000000	
51.868510	12.000000	
51.888770	6.000000	
51.909029	3.000000	
51.929289	10.000000	
51.949549	11.000000	
51.969809	6.000000	
51.990068	4.000000	
52.010328	3.000000	
52.030588	8.000000	
52.050847	7.000000	
52.071107	10.000000	
52.091367	9.000000	
52.111626	8.000000	
52.131886	6.000000	
52.152146	7.000000	
52.172406	10.000000	
52.192665	9.000000	
52.212925	6.000000	
52.233185	8.000000	
52.253444	9.000000	
52.273704	8.000000	
52.293964	4.000000	
52.314223	2.000000	
52.334483	4.000000	
52.354743	10.000000	
52.375003	6.000000	
52.395262	8.000000	
52.415522	3.000000	
52.435782	9.000000	
52.456041	4.000000	
52.476301	3.000000	
52.496561	4.000000	
52.516820	6.000000	
52.537080	7.000000	
52.557340	9.000000	
52.577600	10.000000	
52.597859	9.000000	
52.618119	4.000000	
52.638379	6.000000	
52.658638	6.000000	
52.678898	7.000000	
52.699158	0.000000	
52.719417	8.000000	
52.739677	10.000000	
52.759937	11.000000	
52.780197	7.000000	
52.800456	2.000000	
52.820716	3.000000	
52.840976	3.000000	
52.861235	5.000000	
52.881495	3.000000	
52.901755	7.000000	
52.922014	8.000000	
52.942274	4.000000	
52.962534	5.000000	
52.982794	6.000000	
53.003053	10.000000	
53.023313	11.000000	
53.043573	4.000000	
53.063832	3.000000	
53.084092	3.000000	
53.104352	7.000000	
53.124611	2.000000	
53.144871	6.000000	
53.165131	5.000000	
53.185391	6.000000	
53.205650	8.000000	
53.225910	3.000000	
53.246170	7.000000	
53.266429	7.000000	
53.286689	9.000000	
53.306949	4.000000	
53.327208	4.000000	
53.347468	12.000000	
53.367728	5.000000	
53.387988	5.000000	
53.408247	5.000000	
53.428507	8.000000	
53.448767	16.000000	
53.469026	7.000000	
53.489286	5.000000	
53.509546	7.000000	
53.529805	8.000000	
53.550065	4.000000	
53.570325	4.000000	
53.590585	9.000000	
53.610844	5.000000	
53.631104	6.000000	
53.651364	5.000000	
53.671623	6.000000	
53.691883	5.000000	
53.712143	6.000000	
53.732403	4.000000	
53.752662	7.000000	
53.772922	8.000000	
53.793182	8.000000	
53.813441	2.000000	
53.833701	2.000000	
53.853961	10.000000	
53.874220	8.000000	
53.894480	7.000000	
53.914740	4.000000	
53.935000	2.000000	
53.955259	4.000000	
53.975519	2.000000	
53.995779	7.000000	
54.016038	5.000000	
54.036298	7.000000	
54.056558	3.000000	
54.076817	11.000000	
54.097077	3.000000	
54.117337	2.000000	
54.137597	6.000000	
54.157856	4.000000	
54.178116	3.000000	
54.198376	7.000000	
54.218635	6.000000	
54.238895	5.000000	
54.259155	3.000000	
54.279414	8.000000	
54.299674	4.000000	
54.319934	6.000000	
54.340194	6.000000	
54.360453	4.000000	
54.380713	3.000000	
54.400973	2.000000	
54.421232	8.000000	
54.441492	7.000000	
54.461752	6.000000	
54.482011	3.000000	
54.502271	11.000000	
54.522531	14.000000	
54.542791	11.000000	
54.563050	7.000000	
54.583310	11.000000	
54.603570	12.000000	
54.623829	13.000000	
54.644089	10.000000	
54.664349	11.000000	
54.684608	14.000000	
54.704868	8.000000	
54.725128	2.000000	
54.745388	5.000000	
54.765647	9.000000	
54.785907	7.000000	
54.806167	5.000000	
54.826426	6.000000	
54.846686	7.000000	
54.866946	5.000000	
54.887205	4.000000	
54.907465	5.000000	
54.927725	6.000000	
54.947985	4.000000	
54.968244	6.000000	
54.988504	9.000000	
55.008764	9.000000	
55.029023	7.000000	
55.049283	7.000000	
55.069543	3.000000	
55.089802	3.000000	
55.110062	7.000000	
55.130322	5.000000	
55.150582	4.000000	
55.170841	5.000000	
55.191101	10.000000	
55.211361	14.000000	
55.231620	7.000000	
55.251880	6.000000	
55.272140	11.000000	
55.292399	10.000000	
55.312659	13.000000	
55.332919	9.000000	
55.353179	5.000000	
55.373438	6.000000	
55.393698	10.000000	
55.413958	9.000000	
55.434217	10.000000	
55.454477	15.000000	
55.474737	12.000000	
55.494997	12.000000	
55.515256	8.000000	
55.535516	12.000000	
55.555776	9.000000	
55.576035	12.000000	
55.596295	12.000000	
55.616555	20.000000	
55.636814	17.000000	
55.657074	11.000000	
55.677334	12.000000	
55.697594	9.000000	
55.717853	19.000000	
55.738113	11.000000	
55.758373	21.000000	
55.778632	20.000000	
55.798892	13.000000	
55.819152	14.000000	
55.839411	13.000000	
55.859671	18.000000	
55.879931	13.000000	
55.900191	31.000000	
55.920450	16.000000	
55.940710	23.000000	
55.960970	21.000000	
55.981229	31.000000	
56.001489	25.000000	
56.021749	21.000000	
56.042008	17.000000	
56.062268	26.000000	
56.082528	21.000000	
56.102788	24.000000	
56.123047	25.000000	
56.143307	29.000000	
56.163567	29.000000	
56.183826	24.000000	
56.204086	41.000000	
56.224346	27.000000	
56.244605	23.000000	
56.264865	20.000000	
56.285125	29.000000	
56.305385	20.000000	
56.325644	27.000000	
56.345904	30.000000	
56.366164	37.000000	
56.386423	28.000000	
56.406683	31.000000	
56.426943	25.000000	
56.447202	12.000000	
56.467462	26.000000	
56.487722	16.000000	
56.507982	10.000000	
56.528241	12.000000	
56.548501	19.000000	
56.568761	8.000000	
56.589020	12.000000	
56.609280	13.000000	
56.629540	8.000000	
56.649799	12.000000	
56.670059	11.000000	
56.690319	5.000000	
56.710579	13.000000	
56.730838	5.000000	
56.751098	8.000000	
56.771358	12.000000	
56.791617	7.000000	
56.811877	9.000000	
56.832137	9.000000	
56.852396	6.000000	
56.872656	12.000000	
56.892916	14.000000	
56.913176	8.000000	
56.933435	8.000000	
56.953695	10.000000	
56.973955	10.000000	
56.994214	8.000000	
57.014474	9.000000	
57.034734	8.000000	
57.054994	5.000000	
57.075253	4.000000	
57.095513	4.000000	
57.115773	8.000000	
57.136032	7.000000	
57.156292	8.000000	
57.176552	14.000000	
57.196811	9.000000	
57.217071	8.000000	
57.237331	13.000000	
57.257591	11.000000	
57.277850	9.000000	
57.298110	11.000000	
57.318370	5.000000	
57.338629	14.000000	
57.358889	14.000000	
57.379149	10.000000	
57.399408	9.000000	
57.419668	8.000000	
57.439928	4.000000	
57.460188	9.000000	
57.480447	3.000000	
57.500707	5.000000	
57.520967	4.000000	
57.541226	11.000000	
57.561486	9.000000	
57.581746	7.000000	
57.602005	8.000000	
57.622265	6.000000	
57.642525	7.000000	
57.662785	8.000000	
57.683044	10.000000	
57.703304	7.000000	
57.723564	8.000000	
57.743823	5.000000	
57.764083	9.000000	
57.784343	3.000000	
57.804602	12.000000	
57.824862	13.000000	
57.845122	6.000000	
57.865382	11.000000	
57.885641	12.000000	
57.905901	5.000000	
57.926161	5.000000	
57.946420	6.000000	
57.966680	10.000000	
57.986940	5.000000	
58.007199	7.000000	
58.027459	5.000000	
58.047719	4.000000	
58.067979	7.000000	
58.088238	4.000000	
58.108498	7.000000	
58.128758	5.000000	
58.149017	9.000000	
58.169277	10.000000	
58.189537	4.000000	
58.209796	6.000000	
58.230056	6.000000	
58.250316	11.000000	
58.270576	5.000000	
58.290835	8.000000	
58.311095	5.000000	
58.331355	3.000000	
58.351614	4.000000	
58.371874	6.000000	
58.392134	7.000000	
58.412393	7.000000	
58.432653	7.000000	
58.452913	9.000000	
58.473173	3.000000	
58.493432	3.000000	
58.513692	11.000000	
58.533952	10.000000	
58.554211	7.000000	
58.574471	7.000000	
58.594731	7.000000	
58.614990	10.000000	
58.635250	9.000000	
58.655510	2.000000	
58.675770	8.000000	
58.696029	6.000000	
58.716289	5.000000	
58.736549	0.000000	
58.756808	2.000000	
58.777068	7.000000	
58.797328	4.000000	
58.817588	8.000000	
58.837847	10.000000	
58.858107	4.000000	
58.878367	5.000000	
58.898626	5.000000	
58.918886	11.000000	
58.939146	5.000000	
58.959405	2.000000	
58.979665	1.000000	
58.999925	7.000000	
59.020185	14.000000	
59.040444	6.000000	
59.060704	5.000000	
59.080964	3.000000	
59.101223	6.000000	
59.121483	4.000000	
59.141743	7.000000	
59.162002	10.000000	
59.182262	4.000000	
59.202522	3.000000	
59.222782	9.000000	
59.243041	1.000000	
59.263301	5.000000	
59.283561	2.000000	
59.303820	7.000000	
59.324080	7.000000	
59.344340	7.000000	
59.364599	4.000000	
59.384859	7.000000	
59.405119	4.000000	
59.425379	7.000000	
59.445638	5.000000	
59.465898	4.000000	
59.486158	6.000000	
59.506417	9.000000	
59.526677	3.000000	
59.546937	9.000000	
59.567196	2.000000	
59.587456	8.000000	
59.607716	6.000000	
59.627976	7.000000	
59.648235	6.000000	
59.668495	7.000000	
59.688755	7.000000	
59.709014	5.000000	
59.729274	5.000000	
59.749534	6.000000	
59.769793	8.000000	
59.790053	7.000000	
59.810313	8.000000	
59.830573	1.000000	
59.850832	4.000000	
59.871092	4.000000	
59.891352	8.000000	
59.911611	5.000000	
59.931871	3.000000	
59.952131	8.000000	
59.972390	6.000000	
59.992650	7.000000	
60.012910	11.000000	
60.033170	5.000000	
60.053429	4.000000	
60.073689	4.000000	
60.093949	7.000000	
60.114208	5.000000	
60.134468	5.000000	
60.154728	7.000000	
60.174987	9.000000	
60.195247	6.000000	
60.215507	6.000000	
60.235767	8.000000	
60.256026	3.000000	
60.276286	9.000000	
60.296546	6.000000	
60.316805	8.000000	
60.337065	9.000000	
60.357325	5.000000	
60.377585	3.000000	
60.397844	4.000000	
60.418104	7.000000	
60.438364	8.000000	
60.458623	4.000000	
60.478883	8.000000	
60.499143	4.000000	
60.519402	9.000000	
60.539662	5.000000	
60.559922	8.000000	
60.580182	7.000000	
60.600441	3.000000	
60.620701	4.000000	
60.640961	9.000000	
60.661220	10.000000	
60.681480	9.000000	
60.701740	6.000000	
60.721999	10.000000	
60.742259	6.000000	
60.762519	6.000000	
60.782779	4.000000	
60.803038	6.000000	
60.823298	3.000000	
60.843558	5.000000	
60.863817	6.000000	
60.884077	10.000000	
60.904337	3.000000	
60.924596	11.000000	
60.944856	4.000000	
60.965116	6.000000	
60.985376	6.000000	
61.005635	11.000000	
61.025895	11.000000	
61.046155	6.000000	
61.066414	7.000000	
61.086674	8.000000	
61.106934	7.000000	
61.127193	7.000000	
61.147453	8.000000	
61.167713	2.000000	
61.187973	6.000000	
61.208232	13.000000	
61.228492	7.000000	
61.248752	5.000000	
61.269011	10.000000	
61.289271	8.000000	
61.309531	4.000000	
61.329790	7.000000	
61.350050	7.000000	
61.370310	6.000000	
61.390570	5.000000	
61.410829	6.000000	
61.431089	9.000000	
61.451349	4.000000	
61.471608	5.000000	
61.491868	7.000000	
61.512128	12.000000	
61.532387	8.000000	
61.552647	6.000000	
61.572907	15.000000	
61.593167	14.000000	
61.613426	16.000000	
61.633686	20.000000	
61.653946	25.000000	
61.674205	19.000000	
61.694465	34.000000	
61.714725	23.000000	
61.734984	28.000000	
61.755244	17.000000	
61.775504	25.000000	
61.795764	20.000000	
61.816023	12.000000	
61.836283	15.000000	
61.856543	9.000000	
61.876802	7.000000	
61.897062	5.000000	
61.917322	11.000000	
61.937581	15.000000	
61.957841	7.000000	
61.978101	8.000000	
61.998361	6.000000	
62.018620	6.000000	
62.038880	7.000000	
62.059140	5.000000	
62.079399	5.000000	
62.099659	11.000000	
62.119919	10.000000	
62.140179	10.000000	
62.160438	5.000000	
62.180698	8.000000	
62.200958	7.000000	
62.221217	7.000000	
62.241477	6.000000	
62.261737	4.000000	
62.281996	6.000000	
62.302256	10.000000	
62.322516	9.000000	
62.342776	10.000000	
62.363035	8.000000	
62.383295	7.000000	
62.403555	10.000000	
62.423814	10.000000	
62.444074	8.000000	
62.464334	8.000000	
62.484593	4.000000	
62.504853	7.000000	
62.525113	9.000000	
62.545373	6.000000	
62.565632	7.000000	
62.585892	2.000000	
62.606152	7.000000	
62.626411	9.000000	
62.646671	9.000000	
62.666931	4.000000	
62.687190	12.000000	
62.707450	5.000000	
62.727710	8.000000	
62.747970	7.000000	
62.768229	10.000000	
62.788489	6.000000	
62.808749	11.000000	
62.829008	10.000000	
62.849268	12.000000	
62.869528	10.000000	
62.889787	8.000000	
62.910047	5.000000	
62.930307	4.000000	
62.950567	13.000000	
62.970826	13.000000	
62.991086	11.000000	
63.011346	11.000000	
63.031605	3.000000	
63.051865	13.000000	
63.072125	9.000000	
63.092384	5.000000	
63.112644	3.000000	
63.132904	7.000000	
63.153164	7.000000	
63.173423	6.000000	
63.193683	9.000000	
63.213943	5.000000	
63.234202	10.000000	
63.254462	9.000000	
63.274722	13.000000	
63.294981	18.000000	
63.315241	8.000000	
63.335501	10.000000	
63.355761	6.000000	
63.376020	12.000000	
63.396280	10.000000	
63.416540	8.000000	
63.436799	10.000000	
63.457059	14.000000	
63.477319	5.000000	
63.497578	13.000000	
63.517838	6.000000	
63.538098	11.000000	
63.558358	9.000000	
63.578617	11.000000	
63.598877	6.000000	
63.619137	11.000000	
63.639396	9.000000	
63.659656	10.000000	
63.679916	9.000000	
63.700175	9.000000	
63.720435	6.000000	
63.740695	8.000000	
63.760955	9.000000	
63.781214	7.000000	
63.801474	6.000000	
63.821734	10.000000	
63.841993	15.000000	
63.862253	5.000000	
63.882513	8.000000	
63.902773	5.000000	
63.923032	11.000000	
63.943292	12.000000	
63.963552	11.000000	
63.983811	7.000000	
64.004071	14.000000	
64.024331	13.000000	
64.044590	8.000000	
64.064850	8.000000	
64.085110	7.000000	
64.105370	9.000000	
64.125629	11.000000	
64.145889	6.000000	
64.166149	11.000000	
64.186408	11.000000	
64.206668	6.000000	
64.226928	15.000000	
64.247187	10.000000	
64.267447	6.000000	
64.287707	8.000000	
64.307967	9.000000	
64.328226	20.000000	
64.348486	3.000000	
64.368746	8.000000	
64.389005	10.000000	
64.409265	19.000000	
64.429525	6.000000	
64.449784	15.000000	
64.470044	13.000000	
64.490304	15.000000	
64.510564	15.000000	
64.530823	7.000000	
64.551083	10.000000	
64.571343	17.000000	
64.591602	8.000000	
64.611862	12.000000	
64.632122	10.000000	
64.652381	16.000000	
64.672641	14.000000	
64.692901	6.000000	
64.713161	11.000000	
64.733420	15.000000	
64.753680	13.000000	
64.773940	13.000000	
64.794199	13.000000	
64.814459	11.000000	
64.834719	7.000000	
64.854978	13.000000	
64.875238	11.000000	
64.895498	9.000000	
64.915758	16.000000	
64.936017	14.000000	
64.956277	18.000000	
64.976537	13.000000	
64.996796	14.000000	
65.017056	17.000000	
65.037316	9.000000	
65.057575	12.000000	
65.077835	17.000000	
65.098095	22.000000	
65.118355	14.000000	
65.138614	22.000000	
65.158874	19.000000	
65.179134	13.000000	
65.199393	22.000000	
65.219653	16.000000	
65.239913	13.000000	
65.260172	14.000000	
65.280432	21.000000	
65.300692	14.000000	
65.320952	27.000000	
65.341211	18.000000	
65.361471	21.000000	
65.381731	17.000000	
65.401990	21.000000	
65.422250	19.000000	
65.442510	31.000000	
65.462770	27.000000	
65.483029	29.000000	
65.503289	23.000000	
65.523549	25.000000	
65.543808	20.000000	
65.564068	19.000000	
65.584328	32.000000	
65.604587	19.000000	
65.624847	22.000000	
65.645107	26.000000	
65.665367	31.000000	
65.685626	25.000000	
65.705886	35.000000	
65.726146	36.000000	
65.746405	39.000000	
65.766665	66.000000	
65.786925	73.000000	
65.807184	94.000000	
65.827444	89.000000	
65.847704	82.000000	
65.867964	76.000000	
65.888223	68.000000	
65.908483	79.000000	
65.928743	66.000000	
65.949002	79.000000	
65.969262	51.000000	
65.989522	54.000000	
66.009781	40.000000	
66.030041	42.000000	
66.050301	55.000000	
66.070561	36.000000	
66.090820	45.000000	
66.111080	36.000000	
66.131340	37.000000	
66.151599	33.000000	
66.171859	34.000000	
66.192119	29.000000	
66.212378	27.000000	
66.232638	37.000000	
66.252898	31.000000	
66.273158	40.000000	
66.293417	52.000000	
66.313677	113.000000	
66.333937	188.000000	
66.354196	290.000000	
66.374456	417.000000	
66.394716	696.000000	
66.414975	867.000000	
66.435235	952.000000	
66.455495	1041.000000	
66.475755	1072.000000	
66.496014	1109.000000	
66.516274	1175.000000	
66.536534	1212.000000	
66.556793	1200.000000	
66.577053	1061.000000	
66.597313	924.000000	
66.617572	876.000000	
66.637832	830.000000	
66.658092	810.000000	
66.678352	746.000000	
66.698611	787.000000	
66.718871	749.000000	
66.739131	747.000000	
66.759390	717.000000	
66.779650	778.000000	
66.799910	754.000000	
66.820169	724.000000	
66.840429	716.000000	
66.860689	785.000000	
66.880949	774.000000	
66.901208	711.000000	
66.921468	751.000000	
66.941728	773.000000	
66.961987	792.000000	
66.982247	718.000000	
67.002507	763.000000	
67.022766	739.000000	
67.043026	761.000000	
67.063286	818.000000	
67.083546	749.000000	
67.103805	739.000000	
67.124065	773.000000	
67.144325	799.000000	
67.164584	796.000000	
67.184844	844.000000	
67.205104	873.000000	
67.225364	802.000000	
67.245623	863.000000	
67.265883	774.000000	
67.286143	778.000000	
67.306402	826.000000	
67.326662	829.000000	
67.346922	858.000000	
67.367181	930.000000	
67.387441	820.000000	
67.407701	848.000000	
67.427961	847.000000	
67.448220	882.000000	
67.468480	848.000000	
67.488740	848.000000	
67.508999	893.000000	
67.529259	927.000000	
67.549519	881.000000	
67.569778	923.000000	
67.590038	912.000000	
67.610298	921.000000	
67.630558	920.000000	
67.650817	948.000000	
67.671077	918.000000	
67.691337	880.000000	
67.711596	993.000000	
67.731856	974.000000	
67.752116	949.000000	
67.772375	951.000000	
67.792635	961.000000	
67.812895	1019.000000	
67.833155	989.000000	
67.853414	958.000000	
67.873674	1021.000000	
67.893934	1049.000000	
67.914193	1025.000000	
67.934453	1032.000000	
67.954713	1046.000000	
67.974972	1053.000000	
67.995232	1086.000000	
68.015492	1121.000000	
68.035752	1108.000000	
68.056011	1061.000000	
68.076271	1088.000000	
68.096531	1139.000000	
68.116790	1119.000000	
68.137050	1168.000000	
68.157310	1154.000000	
68.177569	1131.000000	
68.197829	1197.000000	
68.218089	1183.000000	
68.238349	1210.000000	
68.258608	1244.000000	
68.278868	1318.000000	
68.299128	1243.000000	
68.319387	1282.000000	
68.339647	1396.000000	
68.359907	1361.000000	
68.380166	1381.000000	
68.400426	1454.000000	
68.420686	1500.000000	
68.440946	1493.000000	
68.461205	1553.000000	
68.481465	1566.000000	
68.501725	1656.000000	
68.521984	1712.000000	
68.542244	1712.000000	
68.562504	1817.000000	
68.582763	1944.000000	
68.603023	1997.000000	
68.623283	2222.000000	
68.643543	2542.000000	
68.663802	2875.000000	
68.684062	3279.000000	
68.704322	3894.000000	
68.724581	4320.000000	
68.744841	4939.000000	
68.765101	5127.000000	
68.785361	5604.000000	
68.805620	5827.000000	
68.825880	6063.000000	
68.846140	6116.000000	
68.866399	6606.000000	
68.886659	7080.000000	
68.906919	8018.000000	
68.927178	9869.000000	
68.947438	12575.000000	
68.967698	16788.000000	
68.987958	25381.000000	
69.008217	44682.000000	
69.028477	100994.000000	
69.048737	181764.000000	
69.068996	230336.000000	
69.089256	255063.000000	
69.109516	262116.000000	
69.129775	262020.000000	
69.150035	255993.000000	
69.170295	233418.000000	
69.190555	178031.000000	
69.210814	117694.000000	
69.231074	102166.000000	
69.251334	114638.000000	
69.271593	126437.000000	
69.291853	131436.000000	
69.312113	132401.000000	
69.332372	130670.000000	
69.352632	122938.000000	
69.372892	102750.000000	
69.393152	69046.000000	
69.413411	37642.000000	
69.433671	19376.000000	
69.453931	11484.000000	
69.474190	8069.000000	
69.494450	6218.000000	
69.514710	5164.000000	
69.534969	4305.000000	
69.555229	3876.000000	
69.575489	3357.000000	
69.595749	3006.000000	
69.616008	2729.000000	
69.636268	2625.000000	
69.656528	2225.000000	
69.676787	2093.000000	
69.697047	2038.000000	
69.717307	1888.000000	
69.737566	1798.000000	
69.757826	1578.000000	
69.778086	1483.000000	
69.798346	1529.000000	
69.818605	1321.000000	
69.838865	1311.000000	
69.859125	1261.000000	
69.879384	1164.000000	
69.899644	1128.000000	
69.919904	1139.000000	
69.940163	1094.000000	
69.960423	1018.000000	
69.980683	996.000000	
70.000943	955.000000	
70.021202	914.000000	
70.041462	878.000000	
70.061722	848.000000	
70.081981	825.000000	
70.102241	837.000000	
70.122501	811.000000	
70.142760	769.000000	
70.163020	729.000000	
70.183280	721.000000	
70.203540	692.000000	
70.223799	711.000000	
70.244059	658.000000	
70.264319	661.000000	
70.284578	620.000000	
70.304838	629.000000	
70.325098	586.000000	
70.345357	562.000000	
70.365617	569.000000	
70.385877	496.000000	
70.406137	532.000000	
70.426396	492.000000	
70.446656	490.000000	
70.466916	508.000000	
70.487175	477.000000	
70.507435	459.000000	
70.527695	462.000000	
70.547955	431.000000	
70.568214	434.000000	
70.588474	412.000000	
70.608734	411.000000	
70.628993	408.000000	
70.649253	406.000000	
70.669513	374.000000	
70.689772	392.000000	
70.710032	354.000000	
70.730292	363.000000	
70.750552	314.000000	
70.770811	344.000000	
70.791071	323.000000	
70.811331	342.000000	
70.831590	319.000000	
70.851850	334.000000	
70.872110	310.000000	
70.892369	316.000000	
70.912629	270.000000	
70.932889	290.000000	
70.953149	278.000000	
70.973408	278.000000	
70.993668	259.000000	
71.013928	245.000000	
71.034187	254.000000	
71.054447	228.000000	
71.074707	227.000000	
71.094966	225.000000	
71.115226	208.000000	
71.135486	260.000000	
71.155746	214.000000	
71.176005	233.000000	
71.196265	206.000000	
71.216525	195.000000	
71.236784	191.000000	
71.257044	203.000000	
71.277304	193.000000	
71.297563	172.000000	
71.317823	174.000000	
71.338083	175.000000	
71.358343	163.000000	
71.378602	186.000000	
71.398862	180.000000	
71.419122	184.000000	
71.439381	163.000000	
71.459641	168.000000	
71.479901	143.000000	
71.500160	145.000000	
71.520420	156.000000	
71.540680	166.000000	
71.560940	149.000000	
71.581199	141.000000	
71.601459	148.000000	
71.621719	121.000000	
71.641978	137.000000	
71.662238	126.000000	
71.682498	141.000000	
71.702757	126.000000	
71.723017	129.000000	
71.743277	124.000000	
71.763537	100.000000	
71.783796	124.000000	
71.804056	133.000000	
71.824316	111.000000	
71.844575	112.000000	
71.864835	115.000000	
71.885095	116.000000	
71.905354	112.000000	
71.925614	127.000000	
71.945874	103.000000	
71.966134	79.000000	
71.986393	116.000000	
72.006653	107.000000	
72.026913	101.000000	
72.047172	108.000000	
72.067432	94.000000	
72.087692	85.000000	
72.107951	80.000000	
72.128211	58.000000	
72.148471	95.000000	
72.168731	102.000000	
72.188990	83.000000	
72.209250	103.000000	
72.229510	90.000000	
72.249769	87.000000	
72.270029	90.000000	
72.290289	88.000000	
72.310549	89.000000	
72.330808	82.000000	
72.351068	65.000000	
72.371328	65.000000	
72.391587	74.000000	
72.411847	83.000000	
72.432107	83.000000	
72.452366	84.000000	
72.472626	84.000000	
72.492886	74.000000	
72.513146	86.000000	
72.533405	68.000000	
72.553665	81.000000	
72.573925	59.000000	
72.594184	66.000000	
72.614444	68.000000	
72.634704	74.000000	
72.654963	68.000000	
72.675223	66.000000	
72.695483	83.000000	
72.715743	66.000000	
72.736002	60.000000	
72.756262	72.000000	
72.776522	72.000000	
72.796781	65.000000	
72.817041	58.000000	
72.837301	60.000000	
72.857560	70.000000	
72.877820	68.000000	
72.898080	54.000000	
72.918340	61.000000	
72.938599	57.000000	
72.958859	55.000000	
72.979119	76.000000	
72.999378	63.000000	
73.019638	43.000000	
73.039898	70.000000	
73.060157	58.000000	
73.080417	46.000000	
73.100677	41.000000	
73.120937	67.000000	
73.141196	50.000000	
73.161456	50.000000	
73.181716	44.000000	
73.201975	54.000000	
73.222235	48.000000	
73.242495	50.000000	
73.262754	63.000000	
73.283014	53.000000	
73.303274	49.000000	
73.323534	50.000000	
73.343793	53.000000	
73.364053	38.000000	
73.384313	58.000000	
73.404572	51.000000	
73.424832	46.000000	
73.445092	35.000000	
73.465351	52.000000	
73.485611	44.000000	
73.505871	41.000000	
73.526131	52.000000	
73.546390	44.000000	
73.566650	42.000000	
73.586910	54.000000	
73.607169	41.000000	
73.627429	33.000000	
73.647689	51.000000	
73.667948	43.000000	
73.688208	50.000000	
73.708468	41.000000	
73.728728	48.000000	
73.748987	48.000000	
73.769247	46.000000	
73.789507	46.000000	
73.809766	36.000000	
73.830026	33.000000	
73.850286	37.000000	
73.870546	49.000000	
73.890805	46.000000	
73.911065	47.000000	
73.931325	39.000000	
73.951584	29.000000	
73.971844	58.000000	
73.992104	45.000000	
74.012363	37.000000	
74.032623	36.000000	
74.052883	34.000000	
74.073143	36.000000	
74.093402	50.000000	
74.113662	48.000000	
74.133922	30.000000	
74.154181	42.000000	
74.174441	47.000000	
74.194701	34.000000	
74.214960	35.000000	
74.235220	34.000000	
74.255480	36.000000	
74.275740	30.000000	
74.295999	33.000000	
74.316259	36.000000	
74.336519	29.000000	
74.356778	37.000000	
74.377038	34.000000	
74.397298	31.000000	
74.417557	39.000000	
74.437817	37.000000	
74.458077	48.000000	
74.478337	37.000000	
74.498596	35.000000	
74.518856	31.000000	
74.539116	30.000000	
74.559375	34.000000	
74.579635	36.000000	
74.599895	30.000000	
74.620154	36.000000	
74.640414	34.000000	
74.660674	39.000000	
74.680934	36.000000	
74.701193	38.000000	
74.721453	36.000000	
74.741713	32.000000	
74.761972	31.000000	
74.782232	29.000000	
74.802492	30.000000	
74.822751	30.000000	
74.843011	28.000000	
74.863271	44.000000	
74.883531	28.000000	
74.903790	30.000000	
74.924050	25.000000	
74.944310	29.000000	
74.964569	33.000000	
74.984829	38.000000	
75.005089	27.000000	
75.025348	27.000000	
75.045608	29.000000	
75.065868	28.000000	
75.086128	33.000000	
75.106387	33.000000	
75.126647	40.000000	
75.146907	27.000000	
75.167166	31.000000	
75.187426	21.000000	
75.207686	23.000000	
75.227945	27.000000	
75.248205	30.000000	
75.268465	28.000000	
75.288725	33.000000	
75.308984	32.000000	
75.329244	25.000000	
75.349504	27.000000	
75.369763	24.000000	
75.390023	35.000000	
75.410283	29.000000	
75.430542	32.000000	
75.450802	28.000000	
75.471062	25.000000	
75.491322	33.000000	
75.511581	24.000000	
75.531841	23.000000	
75.552101	26.000000	
75.572360	25.000000	
75.592620	34.000000	
75.612880	25.000000	
75.633140	22.000000	
75.653399	15.000000	
75.673659	30.000000	
75.693919	23.000000	
75.714178	23.000000	
75.734438	16.000000	
75.754698	33.000000	
75.774957	26.000000	
75.795217	26.000000	
75.815477	25.000000	
75.835737	27.000000	
75.855996	21.000000	
75.876256	38.000000	
75.896516	32.000000	
75.916775	26.000000	
75.937035	23.000000	
75.957295	28.000000	
75.977554	17.000000	
75.997814	27.000000	
76.018074	29.000000	
76.038334	29.000000	
76.058593	32.000000	
76.078853	26.000000	
76.099113	29.000000	
76.119372	23.000000	
76.139632	31.000000	
76.159892	43.000000	
76.180151	45.000000	
76.200411	34.000000	
76.220671	48.000000	
76.240931	51.000000	
76.261190	41.000000	
76.281450	39.000000	
76.301710	57.000000	
76.321969	49.000000	
76.342229	53.000000	
76.362489	41.000000	
76.382748	36.000000	
76.403008	34.000000	
76.423268	35.000000	
76.443528	30.000000	
76.463787	35.000000	
76.484047	38.000000	
76.504307	34.000000	
76.524566	36.000000	
76.544826	28.000000	
76.565086	25.000000	
76.585345	21.000000	
76.605605	17.000000	
76.625865	12.000000	
76.646125	27.000000	
76.666384	22.000000	
76.686644	20.000000	
76.706904	16.000000	
76.727163	28.000000	
76.747423	12.000000	
76.767683	18.000000	
76.787942	20.000000	
76.808202	19.000000	
76.828462	27.000000	
76.848722	18.000000	
76.868981	13.000000	
76.889241	12.000000	
76.909501	21.000000	
76.929760	11.000000	
76.950020	22.000000	
76.970280	23.000000	
76.990539	19.000000	
77.010799	17.000000	
77.031059	23.000000	
77.051319	11.000000	
77.071578	16.000000	
77.091838	22.000000	
77.112098	20.000000	
77.132357	17.000000	
77.152617	17.000000	
77.172877	11.000000	
77.193137	16.000000	
77.213396	12.000000	
77.233656	21.000000	
77.253916	7.000000	
77.274175	19.000000	
77.294435	13.000000	
77.314695	13.000000	
77.334954	14.000000	
77.355214	13.000000	
77.375474	14.000000	
77.395734	16.000000	
77.415993	19.000000	
77.436253	8.000000	
77.456513	14.000000	
77.476772	14.000000	
77.497032	13.000000	
77.517292	16.000000	
77.537551	17.000000	
77.557811	14.000000	
77.578071	15.000000	
77.598331	18.000000	
77.618590	15.000000	
77.638850	13.000000	
77.659110	16.000000	
77.679369	16.000000	
77.699629	15.000000	
77.719889	19.000000	
77.740148	10.000000	
77.760408	9.000000	
77.780668	12.000000	
77.800928	7.000000	
77.821187	21.000000	
77.841447	15.000000	
77.861707	13.000000	
77.881966	21.000000	
77.902226	6.000000	
77.922486	14.000000	
77.942745	19.000000	
77.963005	15.000000	
77.983265	13.000000	
78.003525	9.000000	
78.023784	14.000000	
78.044044	13.000000	
78.064304	5.000000	
78.084563	16.000000	
78.104823	16.000000	
78.125083	9.000000	
78.145342	3.000000	
78.165602	8.000000	
78.185862	11.000000	
78.206122	13.000000	
78.226381	15.000000	
78.246641	7.000000	
78.266901	10.000000	
78.287160	10.000000	
78.307420	11.000000	
78.327680	17.000000	
78.347939	12.000000	
78.368199	10.000000	
78.388459	10.000000	
78.408719	7.000000	
78.428978	15.000000	
78.449238	10.000000	
78.469498	13.000000	
78.489757	11.000000	
78.510017	13.000000	
78.530277	12.000000	
78.550536	18.000000	
78.570796	15.000000	
78.591056	13.000000	
78.611316	8.000000	
78.631575	11.000000	
78.651835	12.000000	
78.672095	13.000000	
78.692354	16.000000	
78.712614	12.000000	
78.732874	6.000000	
78.753133	15.000000	
78.773393	16.000000	
78.793653	13.000000	
78.813913	11.000000	
78.834172	14.000000	
78.854432	10.000000	
78.874692	13.000000	
78.894951	14.000000	
78.915211	7.000000	
78.935471	12.000000	
78.955731	13.000000	
78.975990	13.000000	
78.996250	8.000000	
79.016510	11.000000	
79.036769	17.000000	
79.057029	16.000000	
79.077289	14.000000	
79.097548	10.000000	
79.117808	18.000000	
79.138068	13.000000	
79.158328	12.000000	
79.178587	12.000000	
79.198847	18.000000	
79.219107	8.000000	
79.239366	12.000000	
79.259626	12.000000	
79.279886	14.000000	
79.300145	11.000000	
79.320405	10.000000	
79.340665	6.000000	
79.360925	15.000000	
79.381184	9.000000	
79.401444	13.000000	
79.421704	8.000000	
79.441963	14.000000	
79.462223	10.000000	
79.482483	10.000000	
79.502742	3.000000	
79.523002	6.000000	
79.543262	9.000000	
79.563522	11.000000	
79.583781	6.000000	
79.604041	17.000000	
79.624301	12.000000	
79.644560	11.000000	
79.664820	10.000000	
79.685080	10.000000	
79.705339	2.000000	
79.725599	11.000000	
79.745859	12.000000	
79.766119	10.000000	
79.786378	12.000000	
79.806638	9.000000	
79.826898	10.000000	
79.847157	5.000000	
79.867417	8.000000	
79.887677	11.000000	
79.907936	14.000000	
79.928196	14.000000	
79.948456	9.000000	
79.968716	9.000000	
79.988975	6.000000	
80.009235	6.000000	
80.029495	7.000000	
