;content of C:\Users\Bruker\AppData\Local\Temp\92fetmp-49747219.raw - (Diffrac Plus V4 file)
_FILEVERSION = 3
_SAMPLE = Commander Sample ID
_+SAMPLE
_USER = Lab Manager
_GONIOMETER_CODE = 21
_STAGE_CODE = 4
; Goniometer : D8 theta/theta, stage : Open eulerian craddle
_SAMPLE_CHANGER_CODE = 0
_ATTACHMENTS_CODE = 0
_GONIOMETER_RADIUS = 415
_MONOCHROMATOR = 0
; Incident beam monochromator : None
_BETA_FILTER = N
_ANALYZER_CODE = 0
; Received beam analyzer : None
_DATEMEASURED = 09-Dec-2020 14:53:21
_RUNTIME = 12.37992
_WL_UNIT = A
_WL1 = 1.5406
_WL2 = 1.54439
_WL3 = 1.39222
_WLRATIO = 0.5
_ANODE = Cu
_V4_INF_USER = Lab Manager
_V4_INF_SAMPLEID = Commander Sample ID
_V4_INF_CREATOR = V5Converter
_V4_INF_CREATOR_VERSION = 3.3.47.0
_V4_INF_SUBSTRATE = Si (no database)
_V4_INF_LAYER = Si (no database)

; Data for range 1
_DRIVE = COUPLED
_STEPTIME = 76.8
_STEPSIZE = 0.02026
_STEPMODE = C
_START = 20
_THETA = 10
_2THETA = 20
_KHI = -0.45
_PHI = 0
_X = -13.384
_Y = 0
_Z = 0.674
_DETECTORSLIT = out
_AUX2 = 0
_TIMESTARTED = 0
_KV = 40
_MA = 40
_RANGE_WL = 1.5406
_3DPLANE = 0
_V4_PSD2THETA = 9999
_V4_PSDCHANNEL1 = 0
_V4_PSDAPERTURE = 2.083855
_V4_PSDTYPE = 5
_V4_PSDFIXED = 0
_V4_COUNTERS_MASK = 1
_V4_DRIVES_MASK = 0
_V4_ENCODERS_MASK = 0
_2THETACOUNTS = 1
; 2THETA	Cnt2_D1	
20.000000	21.000000	
20.020260	24.000000	
20.040519	35.000000	
20.060779	25.000000	
20.081039	21.000000	
20.101299	18.000000	
20.121558	22.000000	
20.141818	20.000000	
20.162078	23.000000	
20.182337	25.000000	
20.202597	21.000000	
20.222857	19.000000	
20.243116	31.000000	
20.263376	16.000000	
20.283636	21.000000	
20.303896	28.000000	
20.324155	23.000000	
20.344415	21.000000	
20.364675	20.000000	
20.384934	22.000000	
20.405194	18.000000	
20.425454	22.000000	
20.445713	23.000000	
20.465973	19.000000	
20.486233	18.000000	
20.506493	20.000000	
20.526752	24.000000	
20.547012	17.000000	
20.567272	21.000000	
20.587531	23.000000	
20.607791	15.000000	
20.628051	20.000000	
20.648310	21.000000	
20.668570	17.000000	
20.688830	25.000000	
20.709090	20.000000	
20.729349	24.000000	
20.749609	23.000000	
20.769869	12.000000	
20.790128	16.000000	
20.810388	21.000000	
20.830648	20.000000	
20.850907	18.000000	
20.871167	27.000000	
20.891427	22.000000	
20.911687	36.000000	
20.931946	23.000000	
20.952206	17.000000	
20.972466	22.000000	
20.992725	21.000000	
21.012985	20.000000	
21.033245	17.000000	
21.053504	30.000000	
21.073764	25.000000	
21.094024	17.000000	
21.114284	15.000000	
21.134543	28.000000	
21.154803	29.000000	
21.175063	18.000000	
21.195322	19.000000	
21.215582	19.000000	
21.235842	13.000000	
21.256101	21.000000	
21.276361	15.000000	
21.296621	27.000000	
21.316881	19.000000	
21.337140	24.000000	
21.357400	23.000000	
21.377660	27.000000	
21.397919	24.000000	
21.418179	19.000000	
21.438439	23.000000	
21.458698	13.000000	
21.478958	13.000000	
21.499218	26.000000	
21.519478	18.000000	
21.539737	21.000000	
21.559997	22.000000	
21.580257	19.000000	
21.600516	25.000000	
21.620776	28.000000	
21.641036	23.000000	
21.661295	23.000000	
21.681555	28.000000	
21.701815	39.000000	
21.722075	27.000000	
21.742334	19.000000	
21.762594	31.000000	
21.782854	33.000000	
21.803113	27.000000	
21.823373	27.000000	
21.843633	31.000000	
21.863893	26.000000	
21.884152	35.000000	
21.904412	38.000000	
21.924672	35.000000	
21.944931	34.000000	
21.965191	39.000000	
21.985451	43.000000	
22.005710	46.000000	
22.025970	35.000000	
22.046230	54.000000	
22.066490	59.000000	
22.086749	51.000000	
22.107009	48.000000	
22.127269	47.000000	
22.147528	61.000000	
22.167788	44.000000	
22.188048	55.000000	
22.208307	49.000000	
22.228567	48.000000	
22.248827	45.000000	
22.269087	42.000000	
22.289346	32.000000	
22.309606	46.000000	
22.329866	34.000000	
22.350125	28.000000	
22.370385	39.000000	
22.390645	37.000000	
22.410904	44.000000	
22.431164	32.000000	
22.451424	34.000000	
22.471684	38.000000	
22.491943	34.000000	
22.512203	40.000000	
22.532463	34.000000	
22.552722	34.000000	
22.572982	29.000000	
22.593242	36.000000	
22.613501	30.000000	
22.633761	23.000000	
22.654021	31.000000	
22.674281	30.000000	
22.694540	30.000000	
22.714800	28.000000	
22.735060	32.000000	
22.755319	24.000000	
22.775579	20.000000	
22.795839	28.000000	
22.816098	21.000000	
22.836358	20.000000	
22.856618	22.000000	
22.876878	22.000000	
22.897137	18.000000	
22.917397	21.000000	
22.937657	26.000000	
22.957916	23.000000	
22.978176	23.000000	
22.998436	20.000000	
23.018695	21.000000	
23.038955	22.000000	
23.059215	22.000000	
23.079475	25.000000	
23.099734	23.000000	
23.119994	22.000000	
23.140254	31.000000	
23.160513	22.000000	
23.180773	15.000000	
23.201033	15.000000	
23.221292	20.000000	
23.241552	19.000000	
23.261812	17.000000	
23.282072	16.000000	
23.302331	22.000000	
23.322591	22.000000	
23.342851	15.000000	
23.363110	11.000000	
23.383370	24.000000	
23.403630	23.000000	
23.423890	15.000000	
23.444149	18.000000	
23.464409	17.000000	
23.484669	19.000000	
23.504928	12.000000	
23.525188	24.000000	
23.545448	13.000000	
23.565707	11.000000	
23.585967	19.000000	
23.606227	18.000000	
23.626487	13.000000	
23.646746	21.000000	
23.667006	16.000000	
23.687266	22.000000	
23.707525	17.000000	
23.727785	22.000000	
23.748045	11.000000	
23.768304	18.000000	
23.788564	17.000000	
23.808824	12.000000	
23.829084	14.000000	
23.849343	15.000000	
23.869603	19.000000	
23.889863	16.000000	
23.910122	18.000000	
23.930382	16.000000	
23.950642	20.000000	
23.970901	16.000000	
23.991161	24.000000	
24.011421	18.000000	
24.031681	15.000000	
24.051940	21.000000	
24.072200	12.000000	
24.092460	17.000000	
24.112719	21.000000	
24.132979	18.000000	
24.153239	17.000000	
24.173498	12.000000	
24.193758	16.000000	
24.214018	20.000000	
24.234278	13.000000	
24.254537	11.000000	
24.274797	21.000000	
24.295057	13.000000	
24.315316	20.000000	
24.335576	17.000000	
24.355836	15.000000	
24.376095	15.000000	
24.396355	14.000000	
24.416615	16.000000	
24.436875	9.000000	
24.457134	18.000000	
24.477394	12.000000	
24.497654	13.000000	
24.517913	15.000000	
24.538173	9.000000	
24.558433	14.000000	
24.578692	15.000000	
24.598952	18.000000	
24.619212	20.000000	
24.639472	17.000000	
24.659731	17.000000	
24.679991	16.000000	
24.700251	12.000000	
24.720510	12.000000	
24.740770	17.000000	
24.761030	17.000000	
24.781289	17.000000	
24.801549	15.000000	
24.821809	11.000000	
24.842069	14.000000	
24.862328	11.000000	
24.882588	10.000000	
24.902848	8.000000	
24.923107	14.000000	
24.943367	12.000000	
24.963627	10.000000	
24.983886	18.000000	
25.004146	15.000000	
25.024406	15.000000	
25.044666	13.000000	
25.064925	12.000000	
25.085185	20.000000	
25.105445	13.000000	
25.125704	15.000000	
25.145964	19.000000	
25.166224	13.000000	
25.186484	16.000000	
25.206743	11.000000	
25.227003	17.000000	
25.247263	14.000000	
25.267522	13.000000	
25.287782	13.000000	
25.308042	14.000000	
25.328301	17.000000	
25.348561	14.000000	
25.368821	13.000000	
25.389081	18.000000	
25.409340	14.000000	
25.429600	13.000000	
25.449860	9.000000	
25.470119	14.000000	
25.490379	11.000000	
25.510639	18.000000	
25.530898	12.000000	
25.551158	12.000000	
25.571418	17.000000	
25.591678	15.000000	
25.611937	12.000000	
25.632197	13.000000	
25.652457	16.000000	
25.672716	21.000000	
25.692976	21.000000	
25.713236	6.000000	
25.733495	11.000000	
25.753755	14.000000	
25.774015	13.000000	
25.794275	23.000000	
25.814534	11.000000	
25.834794	18.000000	
25.855054	14.000000	
25.875313	18.000000	
25.895573	21.000000	
25.915833	17.000000	
25.936092	16.000000	
25.956352	11.000000	
25.976612	17.000000	
25.996872	13.000000	
26.017131	18.000000	
26.037391	22.000000	
26.057651	16.000000	
26.077910	15.000000	
26.098170	18.000000	
26.118430	17.000000	
26.138689	20.000000	
26.158949	32.000000	
26.179209	12.000000	
26.199469	16.000000	
26.219728	19.000000	
26.239988	11.000000	
26.260248	16.000000	
26.280507	19.000000	
26.300767	19.000000	
26.321027	22.000000	
26.341286	13.000000	
26.361546	21.000000	
26.381806	13.000000	
26.402066	19.000000	
26.422325	16.000000	
26.442585	12.000000	
26.462845	9.000000	
26.483104	13.000000	
26.503364	14.000000	
26.523624	24.000000	
26.543883	16.000000	
26.564143	9.000000	
26.584403	12.000000	
26.604663	10.000000	
26.624922	14.000000	
26.645182	10.000000	
26.665442	12.000000	
26.685701	13.000000	
26.705961	18.000000	
26.726221	16.000000	
26.746481	15.000000	
26.766740	18.000000	
26.787000	9.000000	
26.807260	14.000000	
26.827519	19.000000	
26.847779	17.000000	
26.868039	15.000000	
26.888298	11.000000	
26.908558	18.000000	
26.928818	16.000000	
26.949078	8.000000	
26.969337	17.000000	
26.989597	19.000000	
27.009857	14.000000	
27.030116	11.000000	
27.050376	12.000000	
27.070636	17.000000	
27.090895	15.000000	
27.111155	18.000000	
27.131415	14.000000	
27.151675	7.000000	
27.171934	13.000000	
27.192194	12.000000	
27.212454	17.000000	
27.232713	15.000000	
27.252973	10.000000	
27.273233	13.000000	
27.293492	18.000000	
27.313752	17.000000	
27.334012	13.000000	
27.354272	10.000000	
27.374531	19.000000	
27.394791	11.000000	
27.415051	19.000000	
27.435310	21.000000	
27.455570	15.000000	
27.475830	15.000000	
27.496089	16.000000	
27.516349	16.000000	
27.536609	7.000000	
27.556869	11.000000	
27.577128	21.000000	
27.597388	12.000000	
27.617648	16.000000	
27.637907	15.000000	
27.658167	12.000000	
27.678427	14.000000	
27.698686	12.000000	
27.718946	16.000000	
27.739206	11.000000	
27.759466	13.000000	
27.779725	17.000000	
27.799985	13.000000	
27.820245	13.000000	
27.840504	15.000000	
27.860764	13.000000	
27.881024	13.000000	
27.901283	11.000000	
27.921543	18.000000	
27.941803	12.000000	
27.962063	14.000000	
27.982322	12.000000	
28.002582	9.000000	
28.022842	14.000000	
28.043101	15.000000	
28.063361	14.000000	
28.083621	11.000000	
28.103880	15.000000	
28.124140	5.000000	
28.144400	19.000000	
28.164660	13.000000	
28.184919	8.000000	
28.205179	18.000000	
28.225439	16.000000	
28.245698	19.000000	
28.265958	14.000000	
28.286218	17.000000	
28.306477	12.000000	
28.326737	9.000000	
28.346997	14.000000	
28.367257	17.000000	
28.387516	12.000000	
28.407776	13.000000	
28.428036	22.000000	
28.448295	10.000000	
28.468555	13.000000	
28.488815	17.000000	
28.509075	11.000000	
28.529334	10.000000	
28.549594	20.000000	
28.569854	14.000000	
28.590113	12.000000	
28.610373	12.000000	
28.630633	16.000000	
28.650892	14.000000	
28.671152	14.000000	
28.691412	13.000000	
28.711672	15.000000	
28.731931	14.000000	
28.752191	12.000000	
28.772451	22.000000	
28.792710	16.000000	
28.812970	9.000000	
28.833230	15.000000	
28.853489	13.000000	
28.873749	15.000000	
28.894009	16.000000	
28.914269	17.000000	
28.934528	12.000000	
28.954788	15.000000	
28.975048	13.000000	
28.995307	22.000000	
29.015567	21.000000	
29.035827	9.000000	
29.056086	13.000000	
29.076346	19.000000	
29.096606	14.000000	
29.116866	19.000000	
29.137125	9.000000	
29.157385	14.000000	
29.177645	10.000000	
29.197904	17.000000	
29.218164	16.000000	
29.238424	11.000000	
29.258683	20.000000	
29.278943	17.000000	
29.299203	11.000000	
29.319463	12.000000	
29.339722	13.000000	
29.359982	12.000000	
29.380242	12.000000	
29.400501	13.000000	
29.420761	17.000000	
29.441021	14.000000	
29.461280	12.000000	
29.481540	13.000000	
29.501800	15.000000	
29.522060	14.000000	
29.542319	16.000000	
29.562579	18.000000	
29.582839	19.000000	
29.603098	13.000000	
29.623358	21.000000	
29.643618	18.000000	
29.663877	11.000000	
29.684137	11.000000	
29.704397	13.000000	
29.724657	9.000000	
29.744916	12.000000	
29.765176	19.000000	
29.785436	13.000000	
29.805695	23.000000	
29.825955	16.000000	
29.846215	13.000000	
29.866474	21.000000	
29.886734	12.000000	
29.906994	15.000000	
29.927254	17.000000	
29.947513	16.000000	
29.967773	21.000000	
29.988033	15.000000	
30.008292	12.000000	
30.028552	15.000000	
30.048812	12.000000	
30.069071	15.000000	
30.089331	16.000000	
30.109591	19.000000	
30.129851	14.000000	
30.150110	20.000000	
30.170370	18.000000	
30.190630	15.000000	
30.210889	25.000000	
30.231149	13.000000	
30.251409	15.000000	
30.271669	11.000000	
30.291928	9.000000	
30.312188	15.000000	
30.332448	18.000000	
30.352707	19.000000	
30.372967	24.000000	
30.393227	13.000000	
30.413486	13.000000	
30.433746	20.000000	
30.454006	19.000000	
30.474266	13.000000	
30.494525	15.000000	
30.514785	27.000000	
30.535045	19.000000	
30.555304	12.000000	
30.575564	14.000000	
30.595824	17.000000	
30.616083	20.000000	
30.636343	16.000000	
30.656603	22.000000	
30.676863	23.000000	
30.697122	26.000000	
30.717382	18.000000	
30.737642	16.000000	
30.757901	25.000000	
30.778161	24.000000	
30.798421	28.000000	
30.818680	24.000000	
30.838940	21.000000	
30.859200	23.000000	
30.879460	23.000000	
30.899719	31.000000	
30.919979	21.000000	
30.940239	30.000000	
30.960498	24.000000	
30.980758	25.000000	
31.001018	48.000000	
31.021277	30.000000	
31.041537	36.000000	
31.061797	41.000000	
31.082057	42.000000	
31.102316	47.000000	
31.122576	44.000000	
31.142836	49.000000	
31.163095	50.000000	
31.183355	57.000000	
31.203615	46.000000	
31.223874	75.000000	
31.244134	68.000000	
31.264394	78.000000	
31.284654	75.000000	
31.304913	83.000000	
31.325173	96.000000	
31.345433	101.000000	
31.365692	101.000000	
31.385952	110.000000	
31.406212	130.000000	
31.426471	144.000000	
31.446731	132.000000	
31.466991	150.000000	
31.487251	152.000000	
31.507510	182.000000	
31.527770	157.000000	
31.548030	173.000000	
31.568289	157.000000	
31.588549	155.000000	
31.608809	140.000000	
31.629068	130.000000	
31.649328	144.000000	
31.669588	118.000000	
31.689848	117.000000	
31.710107	97.000000	
31.730367	108.000000	
31.750627	100.000000	
31.770886	72.000000	
31.791146	61.000000	
31.811406	59.000000	
31.831666	63.000000	
31.851925	54.000000	
31.872185	56.000000	
31.892445	36.000000	
31.912704	44.000000	
31.932964	44.000000	
31.953224	41.000000	
31.973483	36.000000	
31.993743	38.000000	
32.014003	33.000000	
32.034263	25.000000	
32.054522	36.000000	
32.074782	37.000000	
32.095042	34.000000	
32.115301	36.000000	
32.135561	45.000000	
32.155821	49.000000	
32.176080	35.000000	
32.196340	31.000000	
32.216600	35.000000	
32.236860	27.000000	
32.257119	35.000000	
32.277379	30.000000	
32.297639	36.000000	
32.317898	35.000000	
32.338158	29.000000	
32.358418	23.000000	
32.378677	30.000000	
32.398937	34.000000	
32.419197	26.000000	
32.439457	28.000000	
32.459716	21.000000	
32.479976	19.000000	
32.500236	23.000000	
32.520495	25.000000	
32.540755	24.000000	
32.561015	24.000000	
32.581274	35.000000	
32.601534	26.000000	
32.621794	25.000000	
32.642054	27.000000	
32.662313	30.000000	
32.682573	31.000000	
32.702833	35.000000	
32.723092	22.000000	
32.743352	30.000000	
32.763612	33.000000	
32.783871	36.000000	
32.804131	44.000000	
32.824391	67.000000	
32.844651	92.000000	
32.864910	186.000000	
32.885170	367.000000	
32.905430	370.000000	
32.925689	387.000000	
32.945949	408.000000	
32.966209	492.000000	
32.986468	524.000000	
33.006728	505.000000	
33.026988	419.000000	
33.047248	274.000000	
33.067507	230.000000	
33.087767	168.000000	
33.108027	102.000000	
33.128286	64.000000	
33.148546	39.000000	
33.168806	27.000000	
33.189065	20.000000	
33.209325	23.000000	
33.229585	12.000000	
33.249845	14.000000	
33.270104	13.000000	
33.290364	23.000000	
33.310624	10.000000	
33.330883	8.000000	
33.351143	9.000000	
33.371403	8.000000	
33.391662	11.000000	
33.411922	13.000000	
33.432182	17.000000	
33.452442	12.000000	
33.472701	12.000000	
33.492961	11.000000	
33.513221	13.000000	
33.533480	12.000000	
33.553740	12.000000	
33.574000	14.000000	
33.594260	17.000000	
33.614519	24.000000	
33.634779	11.000000	
33.655039	16.000000	
33.675298	15.000000	
33.695558	21.000000	
33.715818	19.000000	
33.736077	18.000000	
33.756337	18.000000	
33.776597	19.000000	
33.796857	23.000000	
33.817116	22.000000	
33.837376	20.000000	
33.857636	24.000000	
33.877895	26.000000	
33.898155	31.000000	
33.918415	39.000000	
33.938674	42.000000	
33.958934	43.000000	
33.979194	32.000000	
33.999454	45.000000	
34.019713	40.000000	
34.039973	46.000000	
34.060233	46.000000	
34.080492	49.000000	
34.100752	40.000000	
34.121012	43.000000	
34.141271	42.000000	
34.161531	65.000000	
34.181791	70.000000	
34.202051	42.000000	
34.222310	45.000000	
34.242570	49.000000	
34.262830	56.000000	
34.283089	58.000000	
34.303349	61.000000	
34.323609	46.000000	
34.343868	53.000000	
34.364128	39.000000	
34.384388	38.000000	
34.404648	44.000000	
34.424907	35.000000	
34.445167	41.000000	
34.465427	35.000000	
34.485686	30.000000	
34.505946	28.000000	
34.526206	31.000000	
34.546465	16.000000	
34.566725	33.000000	
34.586985	26.000000	
34.607245	20.000000	
34.627504	22.000000	
34.647764	11.000000	
34.668024	21.000000	
34.688283	12.000000	
34.708543	16.000000	
34.728803	13.000000	
34.749062	13.000000	
34.769322	17.000000	
34.789582	14.000000	
34.809842	15.000000	
34.830101	13.000000	
34.850361	17.000000	
34.870621	23.000000	
34.890880	14.000000	
34.911140	12.000000	
34.931400	9.000000	
34.951659	8.000000	
34.971919	12.000000	
34.992179	13.000000	
35.012439	12.000000	
35.032698	10.000000	
35.052958	7.000000	
35.073218	4.000000	
35.093477	12.000000	
35.113737	11.000000	
35.133997	12.000000	
35.154257	7.000000	
35.174516	13.000000	
35.194776	12.000000	
35.215036	13.000000	
35.235295	8.000000	
35.255555	10.000000	
35.275815	12.000000	
35.296074	6.000000	
35.316334	10.000000	
35.336594	12.000000	
35.356854	15.000000	
35.377113	9.000000	
35.397373	9.000000	
35.417633	13.000000	
35.437892	8.000000	
35.458152	10.000000	
35.478412	9.000000	
35.498671	10.000000	
35.518931	11.000000	
35.539191	6.000000	
35.559451	6.000000	
35.579710	8.000000	
35.599970	11.000000	
35.620230	6.000000	
35.640489	7.000000	
35.660749	11.000000	
35.681009	10.000000	
35.701268	7.000000	
35.721528	8.000000	
35.741788	8.000000	
35.762048	4.000000	
35.782307	9.000000	
35.802567	5.000000	
35.822827	10.000000	
35.843086	7.000000	
35.863346	10.000000	
35.883606	4.000000	
35.903865	8.000000	
35.924125	9.000000	
35.944385	8.000000	
35.964645	7.000000	
35.984904	7.000000	
36.005164	9.000000	
36.025424	9.000000	
36.045683	4.000000	
36.065943	8.000000	
36.086203	12.000000	
36.106462	9.000000	
36.126722	9.000000	
36.146982	13.000000	
36.167242	11.000000	
36.187501	8.000000	
36.207761	5.000000	
36.228021	11.000000	
36.248280	13.000000	
36.268540	7.000000	
36.288800	6.000000	
36.309059	6.000000	
36.329319	6.000000	
36.349579	6.000000	
36.369839	13.000000	
36.390098	8.000000	
36.410358	4.000000	
36.430618	8.000000	
36.450877	7.000000	
36.471137	5.000000	
36.491397	13.000000	
36.511656	6.000000	
36.531916	10.000000	
36.552176	10.000000	
36.572436	8.000000	
36.592695	8.000000	
36.612955	13.000000	
36.633215	10.000000	
36.653474	10.000000	
36.673734	5.000000	
36.693994	8.000000	
36.714253	10.000000	
36.734513	7.000000	
36.754773	11.000000	
36.775033	15.000000	
36.795292	16.000000	
36.815552	12.000000	
36.835812	11.000000	
36.856071	8.000000	
36.876331	9.000000	
36.896591	10.000000	
36.916851	6.000000	
36.937110	11.000000	
36.957370	11.000000	
36.977630	11.000000	
36.997889	7.000000	
37.018149	12.000000	
37.038409	5.000000	
37.058668	9.000000	
37.078928	17.000000	
37.099188	7.000000	
37.119448	10.000000	
37.139707	7.000000	
37.159967	7.000000	
37.180227	3.000000	
37.200486	8.000000	
37.220746	9.000000	
37.241006	10.000000	
37.261265	16.000000	
37.281525	10.000000	
37.301785	8.000000	
37.322045	5.000000	
37.342304	6.000000	
37.362564	13.000000	
37.382824	12.000000	
37.403083	13.000000	
37.423343	11.000000	
37.443603	12.000000	
37.463862	5.000000	
37.484122	12.000000	
37.504382	5.000000	
37.524642	10.000000	
37.544901	8.000000	
37.565161	17.000000	
37.585421	9.000000	
37.605680	6.000000	
37.625940	13.000000	
37.646200	9.000000	
37.666459	7.000000	
37.686719	9.000000	
37.706979	13.000000	
37.727239	8.000000	
37.747498	12.000000	
37.767758	11.000000	
37.788018	10.000000	
37.808277	3.000000	
37.828537	10.000000	
37.848797	10.000000	
37.869056	9.000000	
37.889316	15.000000	
37.909576	10.000000	
37.929836	13.000000	
37.950095	10.000000	
37.970355	9.000000	
37.990615	12.000000	
38.010874	10.000000	
38.031134	8.000000	
38.051394	10.000000	
38.071653	9.000000	
38.091913	14.000000	
38.112173	12.000000	
38.132433	11.000000	
38.152692	10.000000	
38.172952	16.000000	
38.193212	18.000000	
38.213471	16.000000	
38.233731	8.000000	
38.253991	15.000000	
38.274250	16.000000	
38.294510	20.000000	
38.314770	18.000000	
38.335030	13.000000	
38.355289	17.000000	
38.375549	21.000000	
38.395809	23.000000	
38.416068	21.000000	
38.436328	22.000000	
38.456588	27.000000	
38.476847	29.000000	
38.497107	33.000000	
38.517367	26.000000	
38.537627	32.000000	
38.557886	28.000000	
38.578146	36.000000	
38.598406	38.000000	
38.618665	34.000000	
38.638925	31.000000	
38.659185	43.000000	
38.679445	32.000000	
38.699704	29.000000	
38.719964	42.000000	
38.740224	39.000000	
38.760483	40.000000	
38.780743	42.000000	
38.801003	62.000000	
38.821262	52.000000	
38.841522	51.000000	
38.861782	50.000000	
38.882042	62.000000	
38.902301	47.000000	
38.922561	54.000000	
38.942821	52.000000	
38.963080	48.000000	
38.983340	51.000000	
39.003600	43.000000	
39.023859	48.000000	
39.044119	57.000000	
39.064379	47.000000	
39.084639	53.000000	
39.104898	49.000000	
39.125158	31.000000	
39.145418	37.000000	
39.165677	42.000000	
39.185937	38.000000	
39.206197	36.000000	
39.226456	42.000000	
39.246716	27.000000	
39.266976	39.000000	
39.287236	36.000000	
39.307495	35.000000	
39.327755	32.000000	
39.348015	41.000000	
39.368274	30.000000	
39.388534	39.000000	
39.408794	48.000000	
39.429053	40.000000	
39.449313	35.000000	
39.469573	48.000000	
39.489833	41.000000	
39.510092	58.000000	
39.530352	75.000000	
39.550612	59.000000	
39.570871	75.000000	
39.591131	85.000000	
39.611391	110.000000	
39.631650	113.000000	
39.651910	126.000000	
39.672170	179.000000	
39.692430	224.000000	
39.712689	308.000000	
39.732949	443.000000	
39.753209	547.000000	
39.773468	737.000000	
39.793728	1074.000000	
39.813988	1291.000000	
39.834247	1495.000000	
39.854507	1686.000000	
39.874767	1714.000000	
39.895027	1739.000000	
39.915286	1688.000000	
39.935546	1585.000000	
39.955806	1375.000000	
39.976065	1164.000000	
39.996325	925.000000	
40.016585	790.000000	
40.036844	639.000000	
40.057104	481.000000	
40.077364	333.000000	
40.097624	245.000000	
40.117883	180.000000	
40.138143	156.000000	
40.158403	84.000000	
40.178662	97.000000	
40.198922	89.000000	
40.219182	71.000000	
40.239442	45.000000	
40.259701	68.000000	
40.279961	48.000000	
40.300221	42.000000	
40.320480	33.000000	
40.340740	42.000000	
40.361000	23.000000	
40.381259	26.000000	
40.401519	30.000000	
40.421779	32.000000	
40.442039	33.000000	
40.462298	29.000000	
40.482558	23.000000	
40.502818	29.000000	
40.523077	19.000000	
40.543337	19.000000	
40.563597	15.000000	
40.583856	24.000000	
40.604116	19.000000	
40.624376	18.000000	
40.644636	19.000000	
40.664895	16.000000	
40.685155	17.000000	
40.705415	29.000000	
40.725674	15.000000	
40.745934	11.000000	
40.766194	14.000000	
40.786453	17.000000	
40.806713	13.000000	
40.826973	25.000000	
40.847233	13.000000	
40.867492	9.000000	
40.887752	16.000000	
40.908012	8.000000	
40.928271	17.000000	
40.948531	10.000000	
40.968791	12.000000	
40.989050	9.000000	
41.009310	11.000000	
41.029570	19.000000	
41.049830	8.000000	
41.070089	16.000000	
41.090349	7.000000	
41.110609	10.000000	
41.130868	13.000000	
41.151128	1.000000	
41.171388	14.000000	
41.191647	13.000000	
41.211907	10.000000	
41.232167	11.000000	
41.252427	14.000000	
41.272686	13.000000	
41.292946	15.000000	
41.313206	10.000000	
41.333465	8.000000	
41.353725	10.000000	
41.373985	10.000000	
41.394244	9.000000	
41.414504	11.000000	
41.434764	8.000000	
41.455024	11.000000	
41.475283	9.000000	
41.495543	8.000000	
41.515803	10.000000	
41.536062	12.000000	
41.556322	11.000000	
41.576582	8.000000	
41.596841	12.000000	
41.617101	9.000000	
41.637361	8.000000	
41.657621	14.000000	
41.677880	5.000000	
41.698140	7.000000	
41.718400	15.000000	
41.738659	10.000000	
41.758919	9.000000	
41.779179	9.000000	
41.799438	11.000000	
41.819698	10.000000	
41.839958	5.000000	
41.860218	9.000000	
41.880477	9.000000	
41.900737	12.000000	
41.920997	10.000000	
41.941256	6.000000	
41.961516	12.000000	
41.981776	9.000000	
42.002036	9.000000	
42.022295	13.000000	
42.042555	9.000000	
42.062815	8.000000	
42.083074	11.000000	
42.103334	12.000000	
42.123594	6.000000	
42.143853	7.000000	
42.164113	10.000000	
42.184373	7.000000	
42.204633	4.000000	
42.224892	7.000000	
42.245152	10.000000	
42.265412	1.000000	
42.285671	5.000000	
42.305931	10.000000	
42.326191	8.000000	
42.346450	5.000000	
42.366710	8.000000	
42.386970	13.000000	
42.407230	4.000000	
42.427489	4.000000	
42.447749	5.000000	
42.468009	7.000000	
42.488268	14.000000	
42.508528	6.000000	
42.528788	5.000000	
42.549047	5.000000	
42.569307	6.000000	
42.589567	5.000000	
42.609827	11.000000	
42.630086	8.000000	
42.650346	2.000000	
42.670606	5.000000	
42.690865	6.000000	
42.711125	13.000000	
42.731385	9.000000	
42.751644	10.000000	
42.771904	7.000000	
42.792164	3.000000	
42.812424	12.000000	
42.832683	6.000000	
42.852943	10.000000	
42.873203	5.000000	
42.893462	7.000000	
42.913722	9.000000	
42.933982	7.000000	
42.954241	13.000000	
42.974501	4.000000	
42.994761	8.000000	
43.015021	10.000000	
43.035280	9.000000	
43.055540	3.000000	
43.075800	8.000000	
43.096059	6.000000	
43.116319	10.000000	
43.136579	4.000000	
43.156838	6.000000	
43.177098	8.000000	
43.197358	12.000000	
43.217618	9.000000	
43.237877	8.000000	
43.258137	9.000000	
43.278397	12.000000	
43.298656	8.000000	
43.318916	4.000000	
43.339176	7.000000	
43.359435	9.000000	
43.379695	7.000000	
43.399955	4.000000	
43.420215	6.000000	
43.440474	7.000000	
43.460734	5.000000	
43.480994	8.000000	
43.501253	6.000000	
43.521513	10.000000	
43.541773	6.000000	
43.562033	9.000000	
43.582292	11.000000	
43.602552	5.000000	
43.622812	8.000000	
43.643071	7.000000	
43.663331	7.000000	
43.683591	4.000000	
43.703850	7.000000	
43.724110	8.000000	
43.744370	13.000000	
43.764630	5.000000	
43.784889	10.000000	
43.805149	7.000000	
43.825409	7.000000	
43.845668	9.000000	
43.865928	7.000000	
43.886188	7.000000	
43.906447	10.000000	
43.926707	5.000000	
43.946967	7.000000	
43.967227	10.000000	
43.987486	8.000000	
44.007746	6.000000	
44.028006	4.000000	
44.048265	9.000000	
44.068525	5.000000	
44.088785	8.000000	
44.109044	11.000000	
44.129304	9.000000	
44.149564	7.000000	
44.169824	12.000000	
44.190083	8.000000	
44.210343	9.000000	
44.230603	9.000000	
44.250862	10.000000	
44.271122	6.000000	
44.291382	12.000000	
44.311641	12.000000	
44.331901	12.000000	
44.352161	5.000000	
44.372421	7.000000	
44.392680	15.000000	
44.412940	6.000000	
44.433200	9.000000	
44.453459	14.000000	
44.473719	8.000000	
44.493979	12.000000	
44.514238	13.000000	
44.534498	11.000000	
44.554758	16.000000	
44.575018	11.000000	
44.595277	7.000000	
44.615537	9.000000	
44.635797	13.000000	
44.656056	13.000000	
44.676316	12.000000	
44.696576	11.000000	
44.716835	14.000000	
44.737095	12.000000	
44.757355	16.000000	
44.777615	16.000000	
44.797874	14.000000	
44.818134	22.000000	
44.838394	17.000000	
44.858653	29.000000	
44.878913	19.000000	
44.899173	19.000000	
44.919432	18.000000	
44.939692	19.000000	
44.959952	21.000000	
44.980212	23.000000	
45.000471	19.000000	
45.020731	23.000000	
45.040991	32.000000	
45.061250	38.000000	
45.081510	22.000000	
45.101770	30.000000	
45.122029	29.000000	
45.142289	31.000000	
45.162549	48.000000	
45.182809	24.000000	
45.203068	29.000000	
45.223328	42.000000	
45.243588	34.000000	
45.263847	37.000000	
45.284107	29.000000	
45.304367	36.000000	
45.324627	19.000000	
45.344886	36.000000	
45.365146	33.000000	
45.385406	40.000000	
45.405665	32.000000	
45.425925	26.000000	
45.446185	27.000000	
45.466444	27.000000	
45.486704	24.000000	
45.506964	28.000000	
45.527224	24.000000	
45.547483	31.000000	
45.567743	22.000000	
45.588003	21.000000	
45.608262	19.000000	
45.628522	19.000000	
45.648782	21.000000	
45.669041	22.000000	
45.689301	18.000000	
45.709561	22.000000	
45.729821	17.000000	
45.750080	21.000000	
45.770340	17.000000	
45.790600	19.000000	
45.810859	19.000000	
45.831119	19.000000	
45.851379	14.000000	
45.871638	22.000000	
45.891898	17.000000	
45.912158	12.000000	
45.932418	15.000000	
45.952677	23.000000	
45.972937	13.000000	
45.993197	15.000000	
46.013456	14.000000	
46.033716	19.000000	
46.053976	18.000000	
46.074235	22.000000	
46.094495	18.000000	
46.114755	13.000000	
46.135015	35.000000	
46.155274	38.000000	
46.175534	38.000000	
46.195794	29.000000	
46.216053	47.000000	
46.236313	51.000000	
46.256573	65.000000	
46.276832	96.000000	
46.297092	108.000000	
46.317352	151.000000	
46.337612	171.000000	
46.357871	243.000000	
46.378131	239.000000	
46.398391	310.000000	
46.418650	302.000000	
46.438910	309.000000	
46.459170	295.000000	
46.479429	317.000000	
46.499689	291.000000	
46.519949	264.000000	
46.540209	209.000000	
46.560468	239.000000	
46.580728	196.000000	
46.600988	147.000000	
46.621247	120.000000	
46.641507	101.000000	
46.661767	89.000000	
46.682026	71.000000	
46.702286	47.000000	
46.722546	47.000000	
46.742806	35.000000	
46.763065	23.000000	
46.783325	22.000000	
46.803585	26.000000	
46.823844	12.000000	
46.844104	18.000000	
46.864364	18.000000	
46.884623	13.000000	
46.904883	13.000000	
46.925143	12.000000	
46.945403	11.000000	
46.965662	9.000000	
46.985922	18.000000	
47.006182	13.000000	
47.026441	7.000000	
47.046701	17.000000	
47.066961	13.000000	
47.087221	14.000000	
47.107480	6.000000	
47.127740	2.000000	
47.148000	4.000000	
47.168259	11.000000	
47.188519	3.000000	
47.208779	9.000000	
47.229038	8.000000	
47.249298	9.000000	
47.269558	10.000000	
47.289818	7.000000	
47.310077	11.000000	
47.330337	10.000000	
47.350597	9.000000	
47.370856	9.000000	
47.391116	6.000000	
47.411376	5.000000	
47.431635	9.000000	
47.451895	11.000000	
47.472155	11.000000	
47.492415	8.000000	
47.512674	10.000000	
47.532934	13.000000	
47.553194	5.000000	
47.573453	5.000000	
47.593713	6.000000	
47.613973	1.000000	
47.634232	6.000000	
47.654492	5.000000	
47.674752	6.000000	
47.695012	7.000000	
47.715271	9.000000	
47.735531	5.000000	
47.755791	6.000000	
47.776050	7.000000	
47.796310	8.000000	
47.816570	8.000000	
47.836829	7.000000	
47.857089	7.000000	
47.877349	13.000000	
47.897609	5.000000	
47.917868	7.000000	
47.938128	7.000000	
47.958388	7.000000	
47.978647	6.000000	
47.998907	4.000000	
48.019167	11.000000	
48.039426	8.000000	
48.059686	7.000000	
48.079946	3.000000	
48.100206	8.000000	
48.120465	7.000000	
48.140725	10.000000	
48.160985	5.000000	
48.181244	8.000000	
48.201504	3.000000	
48.221764	5.000000	
48.242023	10.000000	
48.262283	1.000000	
48.282543	5.000000	
48.302803	5.000000	
48.323062	3.000000	
48.343322	7.000000	
48.363582	4.000000	
48.383841	5.000000	
48.404101	3.000000	
48.424361	4.000000	
48.444620	5.000000	
48.464880	10.000000	
48.485140	7.000000	
48.505400	6.000000	
48.525659	10.000000	
48.545919	7.000000	
48.566179	6.000000	
48.586438	4.000000	
48.606698	3.000000	
48.626958	6.000000	
48.647218	9.000000	
48.667477	5.000000	
48.687737	9.000000	
48.707997	7.000000	
48.728256	13.000000	
48.748516	5.000000	
48.768776	9.000000	
48.789035	5.000000	
48.809295	12.000000	
48.829555	8.000000	
48.849815	4.000000	
48.870074	5.000000	
48.890334	3.000000	
48.910594	8.000000	
48.930853	7.000000	
48.951113	6.000000	
48.971373	10.000000	
48.991632	5.000000	
49.011892	7.000000	
49.032152	4.000000	
49.052412	4.000000	
49.072671	4.000000	
49.092931	11.000000	
49.113191	3.000000	
49.133450	8.000000	
49.153710	7.000000	
49.173970	6.000000	
49.194229	7.000000	
49.214489	2.000000	
49.234749	4.000000	
49.255009	6.000000	
49.275268	7.000000	
49.295528	8.000000	
49.315788	8.000000	
49.336047	9.000000	
49.356307	8.000000	
49.376567	8.000000	
49.396826	7.000000	
49.417086	12.000000	
49.437346	6.000000	
49.457606	5.000000	
49.477865	8.000000	
49.498125	5.000000	
49.518385	3.000000	
49.538644	5.000000	
49.558904	5.000000	
49.579164	7.000000	
49.599423	0.000000	
49.619683	3.000000	
49.639943	7.000000	
49.660203	7.000000	
49.680462	3.000000	
49.700722	8.000000	
49.720982	4.000000	
49.741241	5.000000	
49.761501	4.000000	
49.781761	4.000000	
49.802020	9.000000	
49.822280	9.000000	
49.842540	3.000000	
49.862800	4.000000	
49.883059	3.000000	
49.903319	8.000000	
49.923579	5.000000	
49.943838	9.000000	
49.964098	4.000000	
49.984358	4.000000	
50.004617	4.000000	
50.024877	9.000000	
50.045137	6.000000	
50.065397	9.000000	
50.085656	3.000000	
50.105916	7.000000	
50.126176	4.000000	
50.146435	8.000000	
50.166695	5.000000	
50.186955	11.000000	
50.207214	7.000000	
50.227474	7.000000	
50.247734	7.000000	
50.267994	3.000000	
50.288253	13.000000	
50.308513	9.000000	
50.328773	4.000000	
50.349032	2.000000	
50.369292	8.000000	
50.389552	5.000000	
50.409812	4.000000	
50.430071	7.000000	
50.450331	5.000000	
50.470591	1.000000	
50.490850	11.000000	
50.511110	5.000000	
50.531370	9.000000	
50.551629	10.000000	
50.571889	6.000000	
50.592149	10.000000	
50.612409	8.000000	
50.632668	10.000000	
50.652928	14.000000	
50.673188	9.000000	
50.693447	10.000000	
50.713707	11.000000	
50.733967	10.000000	
50.754226	11.000000	
50.774486	15.000000	
50.794746	16.000000	
50.815006	20.000000	
50.835265	10.000000	
50.855525	15.000000	
50.875785	13.000000	
50.896044	3.000000	
50.916304	12.000000	
50.936564	15.000000	
50.956823	11.000000	
50.977083	8.000000	
50.997343	11.000000	
51.017603	13.000000	
51.037862	15.000000	
51.058122	12.000000	
51.078382	9.000000	
51.098641	9.000000	
51.118901	20.000000	
51.139161	6.000000	
51.159420	6.000000	
51.179680	14.000000	
51.199940	8.000000	
51.220200	9.000000	
51.240459	8.000000	
51.260719	5.000000	
51.280979	13.000000	
51.301238	5.000000	
51.321498	8.000000	
51.341758	7.000000	
51.362017	7.000000	
51.382277	11.000000	
51.402537	4.000000	
51.422797	11.000000	
51.443056	7.000000	
51.463316	6.000000	
51.483576	11.000000	
51.503835	7.000000	
51.524095	1.000000	
51.544355	10.000000	
51.564614	4.000000	
51.584874	9.000000	
51.605134	3.000000	
51.625394	6.000000	
51.645653	5.000000	
51.665913	5.000000	
51.686173	1.000000	
51.706432	5.000000	
51.726692	6.000000	
51.746952	6.000000	
51.767211	5.000000	
51.787471	7.000000	
51.807731	5.000000	
51.827991	8.000000	
51.848250	10.000000	
51.868510	8.000000	
51.888770	5.000000	
51.909029	5.000000	
51.929289	5.000000	
51.949549	1.000000	
51.969809	5.000000	
51.990068	8.000000	
52.010328	9.000000	
52.030588	3.000000	
52.050847	6.000000	
52.071107	7.000000	
52.091367	5.000000	
52.111626	6.000000	
52.131886	2.000000	
52.152146	6.000000	
52.172406	4.000000	
52.192665	2.000000	
52.212925	5.000000	
52.233185	4.000000	
52.253444	5.000000	
52.273704	10.000000	
52.293964	10.000000	
52.314223	5.000000	
52.334483	4.000000	
52.354743	7.000000	
52.375003	9.000000	
52.395262	3.000000	
52.415522	5.000000	
52.435782	8.000000	
52.456041	5.000000	
52.476301	11.000000	
52.496561	9.000000	
52.516820	9.000000	
52.537080	5.000000	
52.557340	7.000000	
52.577600	4.000000	
52.597859	5.000000	
52.618119	5.000000	
52.638379	7.000000	
52.658638	9.000000	
52.678898	6.000000	
52.699158	3.000000	
52.719417	5.000000	
52.739677	6.000000	
52.759937	3.000000	
52.780197	10.000000	
52.800456	6.000000	
52.820716	8.000000	
52.840976	7.000000	
52.861235	7.000000	
52.881495	4.000000	
52.901755	8.000000	
52.922014	7.000000	
52.942274	8.000000	
52.962534	9.000000	
52.982794	5.000000	
53.003053	6.000000	
53.023313	2.000000	
53.043573	4.000000	
53.063832	5.000000	
53.084092	3.000000	
53.104352	5.000000	
53.124611	2.000000	
53.144871	5.000000	
53.165131	4.000000	
53.185391	8.000000	
53.205650	2.000000	
53.225910	10.000000	
53.246170	4.000000	
53.266429	6.000000	
53.286689	4.000000	
53.306949	4.000000	
53.327208	5.000000	
53.347468	3.000000	
53.367728	5.000000	
53.387988	5.000000	
53.408247	3.000000	
53.428507	5.000000	
53.448767	11.000000	
53.469026	5.000000	
53.489286	4.000000	
53.509546	4.000000	
53.529805	6.000000	
53.550065	8.000000	
53.570325	6.000000	
53.590585	6.000000	
53.610844	11.000000	
53.631104	6.000000	
53.651364	9.000000	
53.671623	5.000000	
53.691883	3.000000	
53.712143	4.000000	
53.732403	7.000000	
53.752662	3.000000	
53.772922	10.000000	
53.793182	6.000000	
53.813441	4.000000	
53.833701	8.000000	
53.853961	8.000000	
53.874220	8.000000	
53.894480	1.000000	
53.914740	5.000000	
53.935000	4.000000	
53.955259	6.000000	
53.975519	9.000000	
53.995779	7.000000	
54.016038	1.000000	
54.036298	4.000000	
54.056558	9.000000	
54.076817	2.000000	
54.097077	9.000000	
54.117337	7.000000	
54.137597	4.000000	
54.157856	9.000000	
54.178116	6.000000	
54.198376	3.000000	
54.218635	6.000000	
54.238895	5.000000	
54.259155	5.000000	
54.279414	4.000000	
54.299674	10.000000	
54.319934	5.000000	
54.340194	4.000000	
54.360453	5.000000	
54.380713	4.000000	
54.400973	4.000000	
54.421232	8.000000	
54.441492	11.000000	
54.461752	8.000000	
54.482011	8.000000	
54.502271	10.000000	
54.522531	7.000000	
54.542791	7.000000	
54.563050	8.000000	
54.583310	8.000000	
54.603570	12.000000	
54.623829	12.000000	
54.644089	7.000000	
54.664349	9.000000	
54.684608	6.000000	
54.704868	7.000000	
54.725128	7.000000	
54.745388	7.000000	
54.765647	6.000000	
54.785907	5.000000	
54.806167	6.000000	
54.826426	8.000000	
54.846686	5.000000	
54.866946	9.000000	
54.887205	12.000000	
54.907465	12.000000	
54.927725	5.000000	
54.947985	7.000000	
54.968244	5.000000	
54.988504	5.000000	
55.008764	9.000000	
55.029023	4.000000	
55.049283	5.000000	
55.069543	9.000000	
55.089802	7.000000	
55.110062	10.000000	
55.130322	7.000000	
55.150582	6.000000	
55.170841	4.000000	
55.191101	6.000000	
55.211361	10.000000	
55.231620	5.000000	
55.251880	14.000000	
55.272140	7.000000	
55.292399	4.000000	
55.312659	8.000000	
55.332919	9.000000	
55.353179	8.000000	
55.373438	5.000000	
55.393698	16.000000	
55.413958	9.000000	
55.434217	6.000000	
55.454477	10.000000	
55.474737	11.000000	
55.494997	13.000000	
55.515256	10.000000	
55.535516	10.000000	
55.555776	9.000000	
55.576035	13.000000	
55.596295	10.000000	
55.616555	8.000000	
55.636814	10.000000	
55.657074	15.000000	
55.677334	7.000000	
55.697594	11.000000	
55.717853	11.000000	
55.738113	12.000000	
55.758373	17.000000	
55.778632	13.000000	
55.798892	12.000000	
55.819152	12.000000	
55.839411	12.000000	
55.859671	22.000000	
55.879931	20.000000	
55.900191	16.000000	
55.920450	24.000000	
55.940710	18.000000	
55.960970	15.000000	
55.981229	23.000000	
56.001489	27.000000	
56.021749	24.000000	
56.042008	21.000000	
56.062268	29.000000	
56.082528	23.000000	
56.102788	30.000000	
56.123047	35.000000	
56.143307	29.000000	
56.163567	21.000000	
56.183826	24.000000	
56.204086	33.000000	
56.224346	34.000000	
56.244605	22.000000	
56.264865	26.000000	
56.285125	29.000000	
56.305385	36.000000	
56.325644	34.000000	
56.345904	39.000000	
56.366164	29.000000	
56.386423	26.000000	
56.406683	30.000000	
56.426943	34.000000	
56.447202	25.000000	
56.467462	28.000000	
56.487722	21.000000	
56.507982	24.000000	
56.528241	22.000000	
56.548501	18.000000	
56.568761	6.000000	
56.589020	8.000000	
56.609280	14.000000	
56.629540	12.000000	
56.649799	9.000000	
56.670059	15.000000	
56.690319	13.000000	
56.710579	9.000000	
56.730838	4.000000	
56.751098	7.000000	
56.771358	17.000000	
56.791617	9.000000	
56.811877	6.000000	
56.832137	9.000000	
56.852396	3.000000	
56.872656	11.000000	
56.892916	6.000000	
56.913176	5.000000	
56.933435	6.000000	
56.953695	9.000000	
56.973955	11.000000	
56.994214	7.000000	
57.014474	5.000000	
57.034734	4.000000	
57.054994	6.000000	
57.075253	10.000000	
57.095513	3.000000	
57.115773	9.000000	
57.136032	5.000000	
57.156292	3.000000	
57.176552	5.000000	
57.196811	3.000000	
57.217071	7.000000	
57.237331	1.000000	
57.257591	11.000000	
57.277850	4.000000	
57.298110	3.000000	
57.318370	9.000000	
57.338629	6.000000	
57.358889	9.000000	
57.379149	11.000000	
57.399408	10.000000	
57.419668	10.000000	
57.439928	8.000000	
57.460188	2.000000	
57.480447	7.000000	
57.500707	8.000000	
57.520967	10.000000	
57.541226	6.000000	
57.561486	6.000000	
57.581746	12.000000	
57.602005	4.000000	
57.622265	6.000000	
57.642525	6.000000	
57.662785	3.000000	
57.683044	5.000000	
57.703304	7.000000	
57.723564	3.000000	
57.743823	4.000000	
57.764083	6.000000	
57.784343	4.000000	
57.804602	4.000000	
57.824862	11.000000	
57.845122	4.000000	
57.865382	7.000000	
57.885641	6.000000	
57.905901	8.000000	
57.926161	4.000000	
57.946420	6.000000	
57.966680	5.000000	
57.986940	3.000000	
58.007199	4.000000	
58.027459	6.000000	
58.047719	5.000000	
58.067979	7.000000	
58.088238	3.000000	
58.108498	5.000000	
58.128758	2.000000	
58.149017	4.000000	
58.169277	8.000000	
58.189537	4.000000	
58.209796	1.000000	
58.230056	2.000000	
58.250316	6.000000	
58.270576	3.000000	
58.290835	4.000000	
58.311095	7.000000	
58.331355	2.000000	
58.351614	3.000000	
58.371874	6.000000	
58.392134	4.000000	
58.412393	8.000000	
58.432653	9.000000	
58.452913	4.000000	
58.473173	5.000000	
58.493432	3.000000	
58.513692	7.000000	
58.533952	8.000000	
58.554211	6.000000	
58.574471	10.000000	
58.594731	4.000000	
58.614990	5.000000	
58.635250	8.000000	
58.655510	5.000000	
58.675770	4.000000	
58.696029	2.000000	
58.716289	7.000000	
58.736549	5.000000	
58.756808	4.000000	
58.777068	5.000000	
58.797328	3.000000	
58.817588	8.000000	
58.837847	3.000000	
58.858107	8.000000	
58.878367	3.000000	
58.898626	2.000000	
58.918886	5.000000	
58.939146	6.000000	
58.959405	4.000000	
58.979665	7.000000	
58.999925	7.000000	
59.020185	5.000000	
59.040444	8.000000	
59.060704	6.000000	
59.080964	5.000000	
59.101223	4.000000	
59.121483	9.000000	
59.141743	4.000000	
59.162002	7.000000	
59.182262	2.000000	
59.202522	10.000000	
59.222782	8.000000	
59.243041	6.000000	
59.263301	5.000000	
59.283561	7.000000	
59.303820	9.000000	
59.324080	1.000000	
59.344340	4.000000	
59.364599	8.000000	
59.384859	4.000000	
59.405119	1.000000	
59.425379	5.000000	
59.445638	3.000000	
59.465898	5.000000	
59.486158	8.000000	
59.506417	4.000000	
59.526677	9.000000	
59.546937	12.000000	
59.567196	5.000000	
59.587456	4.000000	
59.607716	6.000000	
59.627976	8.000000	
59.648235	2.000000	
59.668495	4.000000	
59.688755	8.000000	
59.709014	3.000000	
59.729274	5.000000	
59.749534	4.000000	
59.769793	3.000000	
59.790053	5.000000	
59.810313	4.000000	
59.830573	4.000000	
59.850832	3.000000	
59.871092	7.000000	
59.891352	2.000000	
59.911611	8.000000	
59.931871	3.000000	
59.952131	3.000000	
59.972390	2.000000	
59.992650	3.000000	
60.012910	3.000000	
60.033170	6.000000	
60.053429	7.000000	
60.073689	3.000000	
60.093949	4.000000	
60.114208	1.000000	
60.134468	4.000000	
60.154728	8.000000	
60.174987	4.000000	
60.195247	6.000000	
60.215507	4.000000	
60.235767	4.000000	
60.256026	5.000000	
60.276286	5.000000	
60.296546	4.000000	
60.316805	5.000000	
60.337065	4.000000	
60.357325	3.000000	
60.377585	8.000000	
60.397844	4.000000	
60.418104	8.000000	
60.438364	4.000000	
60.458623	9.000000	
60.478883	9.000000	
60.499143	10.000000	
60.519402	12.000000	
60.539662	7.000000	
60.559922	7.000000	
60.580182	5.000000	
60.600441	6.000000	
60.620701	9.000000	
60.640961	5.000000	
60.661220	1.000000	
60.681480	6.000000	
60.701740	2.000000	
60.721999	6.000000	
60.742259	4.000000	
60.762519	6.000000	
60.782779	7.000000	
60.803038	8.000000	
60.823298	7.000000	
60.843558	4.000000	
60.863817	7.000000	
60.884077	2.000000	
60.904337	4.000000	
60.924596	3.000000	
60.944856	7.000000	
60.965116	4.000000	
60.985376	7.000000	
61.005635	4.000000	
61.025895	8.000000	
61.046155	3.000000	
61.066414	5.000000	
61.086674	7.000000	
61.106934	7.000000	
61.127193	6.000000	
61.147453	4.000000	
61.167713	6.000000	
61.187973	6.000000	
61.208232	11.000000	
61.228492	6.000000	
61.248752	5.000000	
61.269011	4.000000	
61.289271	3.000000	
61.309531	6.000000	
61.329790	14.000000	
61.350050	7.000000	
61.370310	7.000000	
61.390570	6.000000	
61.410829	13.000000	
61.431089	12.000000	
61.451349	7.000000	
61.471608	6.000000	
61.491868	11.000000	
61.512128	8.000000	
61.532387	10.000000	
61.552647	10.000000	
61.572907	11.000000	
61.593167	15.000000	
61.613426	10.000000	
61.633686	14.000000	
61.653946	22.000000	
61.674205	21.000000	
61.694465	18.000000	
61.714725	25.000000	
61.734984	29.000000	
61.755244	27.000000	
61.775504	22.000000	
61.795764	24.000000	
61.816023	13.000000	
61.836283	13.000000	
61.856543	4.000000	
61.876802	6.000000	
61.897062	9.000000	
61.917322	6.000000	
61.937581	6.000000	
61.957841	3.000000	
61.978101	11.000000	
61.998361	10.000000	
62.018620	10.000000	
62.038880	6.000000	
62.059140	4.000000	
62.079399	7.000000	
62.099659	9.000000	
62.119919	8.000000	
62.140179	10.000000	
62.160438	8.000000	
62.180698	2.000000	
62.200958	5.000000	
62.221217	8.000000	
62.241477	8.000000	
62.261737	5.000000	
62.281996	7.000000	
62.302256	8.000000	
62.322516	10.000000	
62.342776	7.000000	
62.363035	5.000000	
62.383295	11.000000	
62.403555	7.000000	
62.423814	12.000000	
62.444074	6.000000	
62.464334	5.000000	
62.484593	8.000000	
62.504853	17.000000	
62.525113	5.000000	
62.545373	6.000000	
62.565632	6.000000	
62.585892	8.000000	
62.606152	12.000000	
62.626411	7.000000	
62.646671	10.000000	
62.666931	6.000000	
62.687190	10.000000	
62.707450	6.000000	
62.727710	7.000000	
62.747970	7.000000	
62.768229	8.000000	
62.788489	5.000000	
62.808749	8.000000	
62.829008	9.000000	
62.849268	13.000000	
62.869528	10.000000	
62.889787	6.000000	
62.910047	4.000000	
62.930307	6.000000	
62.950567	7.000000	
62.970826	8.000000	
62.991086	5.000000	
63.011346	5.000000	
63.031605	8.000000	
63.051865	6.000000	
63.072125	5.000000	
63.092384	10.000000	
63.112644	6.000000	
63.132904	4.000000	
63.153164	8.000000	
63.173423	7.000000	
63.193683	2.000000	
63.213943	4.000000	
63.234202	11.000000	
63.254462	10.000000	
63.274722	5.000000	
63.294981	7.000000	
63.315241	9.000000	
63.335501	13.000000	
63.355761	8.000000	
63.376020	10.000000	
63.396280	8.000000	
63.416540	8.000000	
63.436799	9.000000	
63.457059	6.000000	
63.477319	9.000000	
63.497578	7.000000	
63.517838	8.000000	
63.538098	6.000000	
63.558358	5.000000	
63.578617	5.000000	
63.598877	7.000000	
63.619137	6.000000	
63.639396	3.000000	
63.659656	14.000000	
63.679916	8.000000	
63.700175	10.000000	
63.720435	10.000000	
63.740695	3.000000	
63.760955	11.000000	
63.781214	10.000000	
63.801474	10.000000	
63.821734	7.000000	
63.841993	4.000000	
63.862253	8.000000	
63.882513	7.000000	
63.902773	5.000000	
63.923032	7.000000	
63.943292	12.000000	
63.963552	4.000000	
63.983811	11.000000	
64.004071	12.000000	
64.024331	5.000000	
64.044590	13.000000	
64.064850	6.000000	
64.085110	12.000000	
64.105370	9.000000	
64.125629	6.000000	
64.145889	9.000000	
64.166149	11.000000	
64.186408	7.000000	
64.206668	12.000000	
64.226928	4.000000	
64.247187	9.000000	
64.267447	10.000000	
64.287707	14.000000	
64.307967	9.000000	
64.328226	12.000000	
64.348486	13.000000	
64.368746	15.000000	
64.389005	7.000000	
64.409265	6.000000	
64.429525	7.000000	
64.449784	7.000000	
64.470044	16.000000	
64.490304	15.000000	
64.510564	11.000000	
64.530823	8.000000	
64.551083	14.000000	
64.571343	7.000000	
64.591602	9.000000	
64.611862	12.000000	
64.632122	9.000000	
64.652381	9.000000	
64.672641	17.000000	
64.692901	12.000000	
64.713161	10.000000	
64.733420	17.000000	
64.753680	18.000000	
64.773940	18.000000	
64.794199	9.000000	
64.814459	10.000000	
64.834719	14.000000	
64.854978	9.000000	
64.875238	6.000000	
64.895498	10.000000	
64.915758	16.000000	
64.936017	19.000000	
64.956277	12.000000	
64.976537	13.000000	
64.996796	9.000000	
65.017056	20.000000	
65.037316	12.000000	
65.057575	18.000000	
65.077835	21.000000	
65.098095	19.000000	
65.118355	20.000000	
65.138614	21.000000	
65.158874	24.000000	
65.179134	22.000000	
65.199393	20.000000	
65.219653	24.000000	
65.239913	20.000000	
65.260172	19.000000	
65.280432	20.000000	
65.300692	23.000000	
65.320952	14.000000	
65.341211	14.000000	
65.361471	23.000000	
65.381731	22.000000	
65.401990	21.000000	
65.422250	21.000000	
65.442510	25.000000	
65.462770	21.000000	
65.483029	23.000000	
65.503289	20.000000	
65.523549	23.000000	
65.543808	28.000000	
65.564068	19.000000	
65.584328	17.000000	
65.604587	21.000000	
65.624847	30.000000	
65.645107	27.000000	
65.665367	32.000000	
65.685626	28.000000	
65.705886	25.000000	
65.726146	47.000000	
65.746405	50.000000	
65.766665	68.000000	
65.786925	85.000000	
65.807184	90.000000	
65.827444	105.000000	
65.847704	89.000000	
65.867964	90.000000	
65.888223	77.000000	
65.908483	87.000000	
65.928743	75.000000	
65.949002	92.000000	
65.969262	68.000000	
65.989522	30.000000	
66.009781	34.000000	
66.030041	39.000000	
66.050301	24.000000	
66.070561	21.000000	
66.090820	34.000000	
66.111080	34.000000	
66.131340	30.000000	
66.151599	34.000000	
66.171859	37.000000	
66.192119	27.000000	
66.212378	27.000000	
66.232638	25.000000	
66.252898	26.000000	
66.273158	35.000000	
66.293417	58.000000	
66.313677	93.000000	
66.333937	199.000000	
66.354196	270.000000	
66.374456	435.000000	
66.394716	725.000000	
66.414975	879.000000	
66.435235	949.000000	
66.455495	978.000000	
66.475755	1059.000000	
66.496014	1081.000000	
66.516274	1081.000000	
66.536534	1107.000000	
66.556793	1069.000000	
66.577053	964.000000	
66.597313	850.000000	
66.617572	809.000000	
66.637832	806.000000	
66.658092	766.000000	
66.678352	700.000000	
66.698611	759.000000	
66.718871	649.000000	
66.739131	734.000000	
66.759390	702.000000	
66.779650	652.000000	
66.799910	649.000000	
66.820169	702.000000	
66.840429	707.000000	
66.860689	677.000000	
66.880949	711.000000	
66.901208	674.000000	
66.921468	744.000000	
66.941728	673.000000	
66.961987	685.000000	
66.982247	693.000000	
67.002507	703.000000	
67.022766	691.000000	
67.043026	698.000000	
67.063286	731.000000	
67.083546	732.000000	
67.103805	673.000000	
67.124065	750.000000	
67.144325	724.000000	
67.164584	770.000000	
67.184844	718.000000	
67.205104	727.000000	
67.225364	719.000000	
67.245623	755.000000	
67.265883	742.000000	
67.286143	744.000000	
67.306402	800.000000	
67.326662	780.000000	
67.346922	750.000000	
67.367181	803.000000	
67.387441	807.000000	
67.407701	817.000000	
67.427961	838.000000	
67.448220	828.000000	
67.468480	826.000000	
67.488740	859.000000	
67.508999	851.000000	
67.529259	853.000000	
67.549519	873.000000	
67.569778	932.000000	
67.590038	941.000000	
67.610298	995.000000	
67.630558	1009.000000	
67.650817	1032.000000	
67.671077	1040.000000	
67.691337	1077.000000	
67.711596	1033.000000	
67.731856	1071.000000	
67.752116	1043.000000	
67.772375	1116.000000	
67.792635	1005.000000	
67.812895	982.000000	
67.833155	997.000000	
67.853414	965.000000	
67.873674	1071.000000	
67.893934	1000.000000	
67.914193	1070.000000	
67.934453	1065.000000	
67.954713	982.000000	
67.974972	1013.000000	
67.995232	1000.000000	
68.015492	962.000000	
68.035752	1002.000000	
68.056011	1010.000000	
68.076271	975.000000	
68.096531	1024.000000	
68.116790	1003.000000	
68.137050	1013.000000	
68.157310	1043.000000	
68.177569	1070.000000	
68.197829	1078.000000	
68.218089	1023.000000	
68.238349	1102.000000	
68.258608	1110.000000	
68.278868	1151.000000	
68.299128	1165.000000	
68.319387	1145.000000	
68.339647	1241.000000	
68.359907	1173.000000	
68.380166	1167.000000	
68.400426	1249.000000	
68.420686	1264.000000	
68.440946	1287.000000	
68.461205	1376.000000	
68.481465	1444.000000	
68.501725	1459.000000	
68.521984	1540.000000	
68.542244	1520.000000	
68.562504	1546.000000	
68.582763	1657.000000	
68.603023	1913.000000	
68.623283	1924.000000	
68.643543	2208.000000	
68.663802	2619.000000	
68.684062	2909.000000	
68.704322	3390.000000	
68.724581	3777.000000	
68.744841	4245.000000	
68.765101	4586.000000	
68.785361	5055.000000	
68.805620	5032.000000	
68.825880	5313.000000	
68.846140	5478.000000	
68.866399	5750.000000	
68.886659	5943.000000	
68.906919	6850.000000	
68.927178	8069.000000	
68.947438	10467.000000	
68.967698	14623.000000	
68.987958	22962.000000	
69.008217	43502.000000	
69.028477	99560.000000	
69.048737	167871.000000	
69.068996	205681.000000	
69.089256	225202.000000	
69.109516	230601.000000	
69.129775	230789.000000	
69.150035	222537.000000	
69.170295	196644.000000	
69.190555	143563.000000	
69.210814	94540.000000	
69.231074	88535.000000	
69.251334	100660.000000	
69.271593	109916.000000	
69.291853	115169.000000	
69.312113	115079.000000	
69.332372	113287.000000	
69.352632	104913.000000	
69.372892	84293.000000	
69.393152	53348.000000	
69.413411	28583.000000	
69.433671	15066.000000	
69.453931	9221.000000	
69.474190	6683.000000	
69.494450	5136.000000	
69.514710	4275.000000	
69.534969	3698.000000	
69.555229	3110.000000	
69.575489	2797.000000	
69.595749	2425.000000	
69.616008	2274.000000	
69.636268	2058.000000	
69.656528	1965.000000	
69.676787	1790.000000	
69.697047	1703.000000	
69.717307	1482.000000	
69.737566	1462.000000	
69.757826	1386.000000	
69.778086	1268.000000	
69.798346	1222.000000	
69.818605	1151.000000	
69.838865	1103.000000	
69.859125	971.000000	
69.879384	999.000000	
69.899644	977.000000	
69.919904	855.000000	
69.940163	912.000000	
69.960423	863.000000	
69.980683	826.000000	
70.000943	822.000000	
70.021202	819.000000	
70.041462	799.000000	
70.061722	723.000000	
70.081981	666.000000	
70.102241	634.000000	
70.122501	669.000000	
70.142760	634.000000	
70.163020	641.000000	
70.183280	606.000000	
70.203540	631.000000	
70.223799	576.000000	
70.244059	560.000000	
70.264319	549.000000	
70.284578	544.000000	
70.304838	509.000000	
70.325098	511.000000	
70.345357	491.000000	
70.365617	484.000000	
70.385877	523.000000	
70.406137	435.000000	
70.426396	470.000000	
70.446656	397.000000	
70.466916	437.000000	
70.487175	430.000000	
70.507435	369.000000	
70.527695	373.000000	
70.547955	385.000000	
70.568214	365.000000	
70.588474	352.000000	
70.608734	335.000000	
70.628993	334.000000	
70.649253	331.000000	
70.669513	306.000000	
70.689772	335.000000	
70.710032	268.000000	
70.730292	281.000000	
70.750552	301.000000	
70.770811	282.000000	
70.791071	281.000000	
70.811331	263.000000	
70.831590	300.000000	
70.851850	270.000000	
70.872110	264.000000	
70.892369	230.000000	
70.912629	259.000000	
70.932889	241.000000	
70.953149	227.000000	
70.973408	207.000000	
70.993668	226.000000	
71.013928	202.000000	
71.034187	188.000000	
71.054447	215.000000	
71.074707	198.000000	
71.094966	185.000000	
71.115226	192.000000	
71.135486	185.000000	
71.155746	186.000000	
71.176005	170.000000	
71.196265	163.000000	
71.216525	181.000000	
71.236784	168.000000	
71.257044	161.000000	
71.277304	177.000000	
71.297563	156.000000	
71.317823	148.000000	
71.338083	159.000000	
71.358343	142.000000	
71.378602	154.000000	
71.398862	142.000000	
71.419122	130.000000	
71.439381	135.000000	
71.459641	118.000000	
71.479901	133.000000	
71.500160	126.000000	
71.520420	127.000000	
71.540680	122.000000	
71.560940	120.000000	
71.581199	108.000000	
71.601459	109.000000	
71.621719	106.000000	
71.641978	118.000000	
71.662238	120.000000	
71.682498	107.000000	
71.702757	126.000000	
71.723017	120.000000	
71.743277	122.000000	
71.763537	115.000000	
71.783796	117.000000	
71.804056	97.000000	
71.824316	111.000000	
71.844575	92.000000	
71.864835	96.000000	
71.885095	97.000000	
71.905354	96.000000	
71.925614	87.000000	
71.945874	91.000000	
71.966134	81.000000	
71.986393	82.000000	
72.006653	101.000000	
72.026913	97.000000	
72.047172	96.000000	
72.067432	95.000000	
72.087692	91.000000	
72.107951	84.000000	
72.128211	72.000000	
72.148471	86.000000	
72.168731	85.000000	
72.188990	65.000000	
72.209250	92.000000	
72.229510	92.000000	
72.249769	95.000000	
72.270029	70.000000	
72.290289	83.000000	
72.310549	63.000000	
72.330808	76.000000	
72.351068	78.000000	
72.371328	61.000000	
72.391587	79.000000	
72.411847	72.000000	
72.432107	76.000000	
72.452366	64.000000	
72.472626	56.000000	
72.492886	62.000000	
72.513146	71.000000	
72.533405	51.000000	
72.553665	79.000000	
72.573925	48.000000	
72.594184	61.000000	
72.614444	61.000000	
72.634704	64.000000	
72.654963	56.000000	
72.675223	50.000000	
72.695483	56.000000	
72.715743	53.000000	
72.736002	57.000000	
72.756262	62.000000	
72.776522	61.000000	
72.796781	50.000000	
72.817041	61.000000	
72.837301	47.000000	
72.857560	38.000000	
72.877820	56.000000	
72.898080	58.000000	
72.918340	49.000000	
72.938599	45.000000	
72.958859	50.000000	
72.979119	47.000000	
72.999378	54.000000	
73.019638	40.000000	
73.039898	45.000000	
73.060157	57.000000	
73.080417	37.000000	
73.100677	50.000000	
73.120937	46.000000	
73.141196	44.000000	
73.161456	49.000000	
73.181716	43.000000	
73.201975	38.000000	
73.222235	38.000000	
73.242495	54.000000	
73.262754	39.000000	
73.283014	49.000000	
73.303274	42.000000	
73.323534	50.000000	
73.343793	47.000000	
73.364053	41.000000	
73.384313	43.000000	
73.404572	43.000000	
73.424832	36.000000	
73.445092	37.000000	
73.465351	46.000000	
73.485611	41.000000	
73.505871	46.000000	
73.526131	41.000000	
73.546390	37.000000	
73.566650	37.000000	
73.586910	37.000000	
73.607169	48.000000	
73.627429	42.000000	
73.647689	35.000000	
73.667948	35.000000	
73.688208	27.000000	
73.708468	40.000000	
73.728728	32.000000	
73.748987	37.000000	
73.769247	39.000000	
73.789507	51.000000	
73.809766	39.000000	
73.830026	33.000000	
73.850286	33.000000	
73.870546	46.000000	
73.890805	46.000000	
73.911065	32.000000	
73.931325	38.000000	
73.951584	41.000000	
73.971844	32.000000	
73.992104	45.000000	
74.012363	39.000000	
74.032623	29.000000	
74.052883	34.000000	
74.073143	32.000000	
74.093402	30.000000	
74.113662	22.000000	
74.133922	31.000000	
74.154181	32.000000	
74.174441	21.000000	
74.194701	31.000000	
74.214960	36.000000	
74.235220	28.000000	
74.255480	34.000000	
74.275740	27.000000	
74.295999	44.000000	
74.316259	26.000000	
74.336519	33.000000	
74.356778	21.000000	
74.377038	27.000000	
74.397298	27.000000	
74.417557	34.000000	
74.437817	31.000000	
74.458077	30.000000	
74.478337	41.000000	
74.498596	36.000000	
74.518856	29.000000	
74.539116	28.000000	
74.559375	23.000000	
74.579635	36.000000	
74.599895	37.000000	
74.620154	41.000000	
74.640414	30.000000	
74.660674	31.000000	
74.680934	36.000000	
74.701193	27.000000	
74.721453	28.000000	
74.741713	26.000000	
74.761972	35.000000	
74.782232	31.000000	
74.802492	37.000000	
74.822751	26.000000	
74.843011	35.000000	
74.863271	27.000000	
74.883531	32.000000	
74.903790	25.000000	
74.924050	27.000000	
74.944310	20.000000	
74.964569	31.000000	
74.984829	34.000000	
75.005089	19.000000	
75.025348	28.000000	
75.045608	23.000000	
75.065868	42.000000	
75.086128	32.000000	
75.106387	29.000000	
75.126647	24.000000	
75.146907	23.000000	
75.167166	30.000000	
75.187426	29.000000	
75.207686	23.000000	
75.227945	22.000000	
75.248205	18.000000	
75.268465	20.000000	
75.288725	20.000000	
75.308984	22.000000	
75.329244	25.000000	
75.349504	19.000000	
75.369763	29.000000	
75.390023	22.000000	
75.410283	22.000000	
75.430542	22.000000	
75.450802	14.000000	
75.471062	18.000000	
75.491322	31.000000	
75.511581	24.000000	
75.531841	23.000000	
75.552101	16.000000	
75.572360	15.000000	
75.592620	16.000000	
75.612880	29.000000	
75.633140	25.000000	
75.653399	22.000000	
75.673659	25.000000	
75.693919	21.000000	
75.714178	24.000000	
75.734438	15.000000	
75.754698	16.000000	
75.774957	27.000000	
75.795217	22.000000	
75.815477	18.000000	
75.835737	27.000000	
75.855996	21.000000	
75.876256	19.000000	
75.896516	21.000000	
75.916775	24.000000	
75.937035	25.000000	
75.957295	20.000000	
75.977554	20.000000	
75.997814	20.000000	
76.018074	23.000000	
76.038334	18.000000	
76.058593	21.000000	
76.078853	27.000000	
76.099113	21.000000	
76.119372	17.000000	
76.139632	29.000000	
76.159892	25.000000	
76.180151	36.000000	
76.200411	37.000000	
76.220671	45.000000	
76.240931	29.000000	
76.261190	45.000000	
76.281450	36.000000	
76.301710	43.000000	
76.321969	48.000000	
76.342229	43.000000	
76.362489	48.000000	
76.382748	30.000000	
76.403008	39.000000	
76.423268	36.000000	
76.443528	38.000000	
76.463787	39.000000	
76.484047	29.000000	
76.504307	13.000000	
76.524566	25.000000	
76.544826	19.000000	
76.565086	17.000000	
76.585345	23.000000	
76.605605	25.000000	
76.625865	25.000000	
76.646125	13.000000	
76.666384	19.000000	
76.686644	19.000000	
76.706904	20.000000	
76.727163	14.000000	
76.747423	14.000000	
76.767683	20.000000	
76.787942	12.000000	
76.808202	19.000000	
76.828462	13.000000	
76.848722	15.000000	
76.868981	18.000000	
76.889241	19.000000	
76.909501	21.000000	
76.929760	10.000000	
76.950020	17.000000	
76.970280	14.000000	
76.990539	18.000000	
77.010799	9.000000	
77.031059	17.000000	
77.051319	20.000000	
77.071578	15.000000	
77.091838	16.000000	
77.112098	25.000000	
77.132357	18.000000	
77.152617	11.000000	
77.172877	16.000000	
77.193137	8.000000	
77.213396	17.000000	
77.233656	16.000000	
77.253916	19.000000	
77.274175	16.000000	
77.294435	22.000000	
77.314695	12.000000	
77.334954	14.000000	
77.355214	13.000000	
77.375474	12.000000	
77.395734	10.000000	
77.415993	25.000000	
77.436253	12.000000	
77.456513	11.000000	
77.476772	14.000000	
77.497032	8.000000	
77.517292	9.000000	
77.537551	14.000000	
77.557811	14.000000	
77.578071	11.000000	
77.598331	18.000000	
77.618590	12.000000	
77.638850	14.000000	
77.659110	10.000000	
77.679369	13.000000	
77.699629	15.000000	
77.719889	15.000000	
77.740148	20.000000	
77.760408	9.000000	
77.780668	11.000000	
77.800928	10.000000	
77.821187	13.000000	
77.841447	9.000000	
77.861707	12.000000	
77.881966	12.000000	
77.902226	14.000000	
77.922486	14.000000	
77.942745	10.000000	
77.963005	12.000000	
77.983265	7.000000	
78.003525	13.000000	
78.023784	9.000000	
78.044044	7.000000	
78.064304	12.000000	
78.084563	15.000000	
78.104823	12.000000	
78.125083	8.000000	
78.145342	10.000000	
78.165602	11.000000	
78.185862	10.000000	
78.206122	12.000000	
78.226381	12.000000	
78.246641	11.000000	
78.266901	10.000000	
78.287160	9.000000	
78.307420	12.000000	
78.327680	14.000000	
78.347939	11.000000	
78.368199	12.000000	
78.388459	15.000000	
78.408719	19.000000	
78.428978	9.000000	
78.449238	10.000000	
78.469498	9.000000	
78.489757	6.000000	
78.510017	16.000000	
78.530277	11.000000	
78.550536	6.000000	
78.570796	12.000000	
78.591056	12.000000	
78.611316	12.000000	
78.631575	14.000000	
78.651835	5.000000	
78.672095	14.000000	
78.692354	7.000000	
78.712614	11.000000	
78.732874	13.000000	
78.753133	13.000000	
78.773393	16.000000	
78.793653	9.000000	
78.813913	18.000000	
78.834172	16.000000	
78.854432	20.000000	
78.874692	18.000000	
78.894951	10.000000	
78.915211	14.000000	
78.935471	13.000000	
78.955731	11.000000	
78.975990	15.000000	
78.996250	15.000000	
79.016510	9.000000	
79.036769	12.000000	
79.057029	9.000000	
79.077289	10.000000	
79.097548	14.000000	
79.117808	10.000000	
79.138068	18.000000	
79.158328	10.000000	
79.178587	17.000000	
79.198847	7.000000	
79.219107	10.000000	
79.239366	13.000000	
79.259626	12.000000	
79.279886	11.000000	
79.300145	11.000000	
79.320405	18.000000	
79.340665	14.000000	
79.360925	10.000000	
79.381184	18.000000	
79.401444	15.000000	
79.421704	12.000000	
79.441963	13.000000	
79.462223	10.000000	
79.482483	8.000000	
79.502742	7.000000	
79.523002	17.000000	
79.543262	9.000000	
79.563522	13.000000	
79.583781	11.000000	
79.604041	6.000000	
79.624301	17.000000	
79.644560	9.000000	
79.664820	16.000000	
79.685080	9.000000	
79.705339	8.000000	
79.725599	10.000000	
79.745859	9.000000	
79.766119	8.000000	
79.786378	10.000000	
79.806638	16.000000	
79.826898	8.000000	
79.847157	9.000000	
79.867417	8.000000	
79.887677	7.000000	
79.907936	15.000000	
79.928196	10.000000	
79.948456	10.000000	
79.968716	13.000000	
79.988975	12.000000	
80.009235	11.000000	
80.029495	15.000000	
