time(sec.) 	 T(degreeC.) 	 Q(W.) 
0 	 19.212000 	 100.000000 
1 	 19.160000 	 100.000000 
2 	 19.186000 	 100.000000 
3 	 19.208000 	 100.000000 
4 	 19.203000 	 100.000000 
5 	 19.158000 	 100.000000 
6 	 19.128000 	 100.000000 
7 	 19.142000 	 100.000000 
8 	 19.135000 	 100.000000 
9 	 19.115000 	 100.000000 
10 	 19.106000 	 100.000000 
11 	 19.094000 	 100.000000 
12 	 19.091000 	 100.000000 
13 	 19.103000 	 100.000000 
14 	 19.129000 	 100.000000 
15 	 19.126000 	 100.000000 
16 	 19.124000 	 100.000000 
17 	 19.136000 	 100.000000 
18 	 19.141000 	 100.000000 
19 	 19.159000 	 100.000000 
20 	 19.175000 	 100.000000 
21 	 19.203000 	 100.000000 
22 	 19.216000 	 100.000000 
23 	 19.246000 	 100.000000 
24 	 19.391000 	 100.000000 
25 	 19.437000 	 100.000000 
26 	 19.465000 	 100.000000 
27 	 19.494000 	 100.000000 
28 	 19.517000 	 100.000000 
29 	 19.547000 	 100.000000 
30 	 19.575000 	 100.000000 
31 	 19.588000 	 100.000000 
32 	 19.588000 	 100.000000 
33 	 19.606000 	 100.000000 
34 	 19.634000 	 100.000000 
35 	 19.659000 	 100.000000 
36 	 19.706000 	 100.000000 
37 	 19.743000 	 100.000000 
38 	 19.762000 	 100.000000 
39 	 19.759000 	 100.000000 
40 	 19.805000 	 100.000000 
41 	 19.838000 	 100.000000 
42 	 19.911000 	 100.000000 
43 	 19.985000 	 100.000000 
44 	 20.022000 	 100.000000 
45 	 20.044000 	 100.000000 
46 	 20.053000 	 100.000000 
47 	 20.086000 	 100.000000 
48 	 20.123000 	 100.000000 
49 	 20.193000 	 100.000000 
50 	 20.274000 	 100.000000 
51 	 20.316000 	 100.000000 
52 	 20.365000 	 100.000000 
53 	 20.401000 	 100.000000 
54 	 20.440000 	 100.000000 
55 	 20.478000 	 100.000000 
56 	 20.537000 	 100.000000 
57 	 20.600000 	 100.000000 
58 	 20.669000 	 100.000000 
59 	 20.706000 	 100.000000 
60 	 20.760000 	 100.000000 
61 	 20.816000 	 100.000000 
62 	 20.933000 	 100.000000 
63 	 21.025000 	 100.000000 
64 	 21.135000 	 100.000000 
65 	 21.203000 	 100.000000 
66 	 21.269000 	 100.000000 
67 	 21.267000 	 100.000000 
68 	 21.311000 	 100.000000 
69 	 21.418000 	 100.000000 
70 	 21.488000 	 100.000000 
71 	 21.538000 	 100.000000 
72 	 21.556000 	 100.000000 
73 	 21.644000 	 100.000000 
74 	 21.666000 	 100.000000 
75 	 21.736000 	 100.000000 
76 	 21.816000 	 100.000000 
77 	 21.821000 	 100.000000 
78 	 21.882000 	 100.000000 
79 	 21.930000 	 100.000000 
80 	 22.015000 	 100.000000 
81 	 22.160000 	 100.000000 
82 	 22.248000 	 100.000000 
83 	 22.398000 	 100.000000 
84 	 22.544000 	 100.000000 
85 	 22.614000 	 100.000000 
86 	 22.677000 	 100.000000 
87 	 22.689000 	 100.000000 
88 	 22.718000 	 100.000000 
89 	 22.777000 	 100.000000 
90 	 22.756000 	 100.000000 
91 	 22.790000 	 100.000000 
92 	 22.891000 	 100.000000 
93 	 22.988000 	 100.000000 
94 	 23.097000 	 100.000000 
95 	 23.131000 	 100.000000 
96 	 23.150000 	 100.000000 
97 	 23.181000 	 100.000000 
98 	 23.230000 	 100.000000 
99 	 23.269000 	 100.000000 
100 	 23.307000 	 100.000000 
101 	 23.334000 	 100.000000 
102 	 23.440000 	 100.000000 
103 	 23.554000 	 100.000000 
104 	 23.603000 	 100.000000 
105 	 23.636000 	 100.000000 
106 	 23.656000 	 100.000000 
107 	 23.663000 	 100.000000 
108 	 23.821000 	 100.000000 
109 	 23.950000 	 100.000000 
110 	 24.030000 	 100.000000 
111 	 24.097000 	 100.000000 
112 	 24.130000 	 100.000000 
113 	 24.123000 	 100.000000 
114 	 24.102000 	 100.000000 
115 	 24.085000 	 100.000000 
116 	 24.152000 	 100.000000 
117 	 24.173000 	 100.000000 
118 	 24.218000 	 100.000000 
119 	 24.235000 	 100.000000 
120 	 24.354000 	 100.000000 
121 	 24.409000 	 100.000000 
122 	 24.507000 	 100.000000 
123 	 24.521000 	 100.000000 
124 	 24.561000 	 100.000000 
125 	 24.639000 	 100.000000 
126 	 24.664000 	 100.000000 
127 	 24.721000 	 100.000000 
128 	 24.799000 	 100.000000 
129 	 24.988000 	 100.000000 
130 	 25.093000 	 100.000000 
131 	 25.184000 	 100.000000 
132 	 25.263000 	 100.000000 
133 	 25.307000 	 100.000000 
134 	 25.386000 	 100.000000 
135 	 25.433000 	 100.000000 
136 	 25.439000 	 100.000000 
137 	 25.475000 	 100.000000 
138 	 25.525000 	 100.000000 
139 	 25.557000 	 100.000000 
140 	 25.632000 	 100.000000 
141 	 25.789000 	 100.000000 
142 	 25.866000 	 100.000000 
143 	 25.881000 	 100.000000 
144 	 25.863000 	 100.000000 
145 	 25.866000 	 100.000000 
146 	 25.855000 	 100.000000 
147 	 25.905000 	 100.000000 
148 	 25.895000 	 100.000000 
149 	 25.851000 	 100.000000 
150 	 26.018000 	 100.000000 
151 	 26.126000 	 100.000000 
152 	 26.195000 	 100.000000 
153 	 26.173000 	 100.000000 
154 	 26.228000 	 100.000000 
155 	 26.234000 	 100.000000 
156 	 26.354000 	 100.000000 
157 	 26.421000 	 100.000000 
158 	 26.499000 	 100.000000 
159 	 26.545000 	 100.000000 
160 	 26.615000 	 100.000000 
161 	 26.737000 	 100.000000 
162 	 26.764000 	 100.000000 
163 	 26.790000 	 100.000000 
164 	 26.734000 	 100.000000 
165 	 26.727000 	 100.000000 
166 	 26.800000 	 100.000000 
167 	 26.846000 	 100.000000 
168 	 26.884000 	 100.000000 
169 	 26.911000 	 100.000000 
170 	 26.981000 	 100.000000 
171 	 27.108000 	 100.000000 
172 	 27.209000 	 100.000000 
173 	 27.198000 	 100.000000 
174 	 27.262000 	 100.000000 
175 	 27.328000 	 100.000000 
176 	 27.344000 	 100.000000 
177 	 27.429000 	 100.000000 
178 	 27.532000 	 100.000000 
179 	 27.592000 	 100.000000 
180 	 27.661000 	 100.000000 
181 	 27.712000 	 100.000000 
182 	 27.733000 	 100.000000 
183 	 27.709000 	 100.000000 
184 	 27.762000 	 100.000000 
185 	 27.841000 	 100.000000 
186 	 27.837000 	 100.000000 
187 	 27.932000 	 100.000000 
188 	 28.059000 	 100.000000 
189 	 28.170000 	 100.000000 
190 	 28.160000 	 100.000000 
191 	 28.165000 	 100.000000 
192 	 28.121000 	 100.000000 
193 	 28.048000 	 100.000000 
194 	 28.069000 	 100.000000 
195 	 28.072000 	 100.000000 
196 	 28.075000 	 100.000000 
197 	 28.275000 	 100.000000 
198 	 28.361000 	 100.000000 
199 	 28.364000 	 100.000000 
200 	 28.385000 	 100.000000 
201 	 28.393000 	 100.000000 
202 	 28.441000 	 100.000000 
203 	 28.557000 	 100.000000 
204 	 28.747000 	 100.000000 
205 	 28.805000 	 100.000000 
206 	 28.806000 	 100.000000 
207 	 28.764000 	 100.000000 
208 	 28.886000 	 100.000000 
209 	 29.167000 	 100.000000 
210 	 29.228000 	 100.000000 
211 	 29.262000 	 100.000000 
212 	 29.313000 	 100.000000 
213 	 29.196000 	 100.000000 
214 	 29.108000 	 100.000000 
215 	 29.107000 	 100.000000 
216 	 29.152000 	 100.000000 
217 	 29.131000 	 100.000000 
218 	 29.308000 	 100.000000 
219 	 29.484000 	 100.000000 
220 	 29.577000 	 100.000000 
221 	 29.609000 	 100.000000 
222 	 29.592000 	 100.000000 
223 	 29.601000 	 100.000000 
224 	 29.664000 	 100.000000 
225 	 29.635000 	 100.000000 
226 	 29.700000 	 100.000000 
227 	 29.737000 	 100.000000 
228 	 29.954000 	 100.000000 
229 	 30.024000 	 100.000000 
230 	 30.051000 	 100.000000 
231 	 30.013000 	 100.000000 
232 	 29.964000 	 100.000000 
233 	 30.087000 	 100.000000 
234 	 30.062000 	 100.000000 
235 	 30.142000 	 100.000000 
236 	 30.171000 	 100.000000 
237 	 30.131000 	 100.000000 
238 	 30.090000 	 100.000000 
239 	 30.107000 	 100.000000 
240 	 30.060000 	 100.000000 
241 	 30.057000 	 100.000000 
242 	 30.144000 	 100.000000 
243 	 30.155000 	 100.000000 
244 	 30.234000 	 100.000000 
245 	 30.369000 	 100.000000 
246 	 30.461000 	 100.000000 
247 	 30.558000 	 100.000000 
248 	 30.638000 	 100.000000 
249 	 30.574000 	 100.000000 
250 	 30.502000 	 100.000000 
251 	 30.445000 	 100.000000 
252 	 30.494000 	 100.000000 
253 	 30.591000 	 100.000000 
254 	 30.785000 	 100.000000 
255 	 30.942000 	 100.000000 
256 	 30.990000 	 100.000000 
257 	 31.030000 	 100.000000 
258 	 31.032000 	 100.000000 
259 	 31.009000 	 100.000000 
260 	 31.097000 	 100.000000 
261 	 31.219000 	 100.000000 
262 	 31.337000 	 100.000000 
263 	 31.476000 	 100.000000 
264 	 31.476000 	 100.000000 
265 	 31.506000 	 100.000000 
266 	 31.489000 	 100.000000 
267 	 31.525000 	 100.000000 
268 	 31.503000 	 100.000000 
269 	 31.528000 	 100.000000 
270 	 31.496000 	 100.000000 
271 	 31.379000 	 100.000000 
272 	 31.360000 	 100.000000 
273 	 31.428000 	 100.000000 
274 	 31.468000 	 100.000000 
275 	 31.524000 	 100.000000 
276 	 31.693000 	 100.000000 
277 	 31.800000 	 100.000000 
278 	 31.912000 	 100.000000 
279 	 31.980000 	 100.000000 
280 	 31.906000 	 100.000000 
281 	 31.886000 	 100.000000 
282 	 31.906000 	 100.000000 
283 	 31.917000 	 100.000000 
284 	 31.927000 	 100.000000 
285 	 31.965000 	 100.000000 
286 	 32.058000 	 100.000000 
287 	 32.176000 	 100.000000 
288 	 32.219000 	 100.000000 
289 	 32.121000 	 100.000000 
290 	 32.045000 	 100.000000 
291 	 31.978000 	 100.000000 
292 	 32.042000 	 100.000000 
293 	 32.240000 	 100.000000 
294 	 32.305000 	 100.000000 
295 	 32.329000 	 100.000000 
296 	 32.333000 	 100.000000 
297 	 32.469000 	 100.000000 
298 	 32.494000 	 100.000000 
299 	 32.458000 	 100.000000 
300 	 32.442000 	 100.000000 
301 	 32.513000 	 100.000000 
302 	 32.609000 	 100.000000 
303 	 32.619000 	 100.000000 
304 	 32.583000 	 100.000000 
305 	 32.580000 	 100.000000 
306 	 32.547000 	 100.000000 
307 	 32.758000 	 100.000000 
308 	 32.840000 	 100.000000 
309 	 32.927000 	 100.000000 
310 	 33.016000 	 100.000000 
311 	 33.099000 	 100.000000 
312 	 33.138000 	 100.000000 
313 	 33.161000 	 100.000000 
314 	 33.108000 	 100.000000 
315 	 33.089000 	 100.000000 
316 	 33.144000 	 100.000000 
317 	 33.072000 	 100.000000 
318 	 32.967000 	 100.000000 
319 	 33.036000 	 100.000000 
320 	 33.010000 	 100.000000 
321 	 32.997000 	 100.000000 
322 	 32.915000 	 100.000000 
323 	 32.992000 	 100.000000 
324 	 33.080000 	 100.000000 
325 	 33.162000 	 100.000000 
326 	 33.197000 	 100.000000 
327 	 33.229000 	 100.000000 
328 	 33.295000 	 100.000000 
329 	 33.359000 	 100.000000 
330 	 33.323000 	 100.000000 
331 	 33.315000 	 100.000000 
332 	 33.288000 	 100.000000 
333 	 33.334000 	 100.000000 
334 	 33.403000 	 100.000000 
335 	 33.391000 	 100.000000 
336 	 33.401000 	 100.000000 
337 	 33.520000 	 100.000000 
338 	 33.615000 	 100.000000 
339 	 33.631000 	 100.000000 
340 	 33.632000 	 100.000000 
341 	 33.654000 	 100.000000 
342 	 33.638000 	 100.000000 
343 	 33.644000 	 100.000000 
344 	 33.707000 	 100.000000 
345 	 33.742000 	 100.000000 
346 	 33.771000 	 100.000000 
347 	 33.811000 	 100.000000 
348 	 33.914000 	 100.000000 
349 	 33.956000 	 100.000000 
350 	 34.083000 	 100.000000 
351 	 34.185000 	 100.000000 
352 	 34.123000 	 100.000000 
353 	 33.998000 	 100.000000 
354 	 33.946000 	 100.000000 
355 	 33.990000 	 100.000000 
356 	 33.977000 	 100.000000 
357 	 33.981000 	 100.000000 
358 	 34.009000 	 100.000000 
359 	 34.163000 	 100.000000 
360 	 34.225000 	 100.000000 
361 	 34.214000 	 100.000000 
362 	 34.374000 	 100.000000 
363 	 34.426000 	 100.000000 
364 	 34.507000 	 100.000000 
365 	 34.682000 	 100.000000 
366 	 34.749000 	 100.000000 
367 	 34.778000 	 100.000000 
368 	 34.808000 	 100.000000 
369 	 34.742000 	 100.000000 
370 	 34.716000 	 100.000000 
371 	 34.673000 	 100.000000 
372 	 34.770000 	 100.000000 
373 	 34.906000 	 100.000000 
374 	 35.001000 	 100.000000 
375 	 35.008000 	 100.000000 
376 	 34.982000 	 100.000000 
377 	 34.879000 	 100.000000 
378 	 34.781000 	 100.000000 
379 	 34.753000 	 100.000000 
380 	 34.780000 	 100.000000 
381 	 34.771000 	 100.000000 
382 	 34.871000 	 100.000000 
383 	 34.891000 	 100.000000 
384 	 34.958000 	 100.000000 
385 	 34.950000 	 100.000000 
386 	 34.941000 	 100.000000 
387 	 35.158000 	 100.000000 
388 	 35.376000 	 100.000000 
389 	 35.418000 	 100.000000 
390 	 35.513000 	 100.000000 
391 	 35.580000 	 100.000000 
392 	 35.551000 	 100.000000 
393 	 35.596000 	 100.000000 
394 	 35.531000 	 100.000000 
395 	 35.319000 	 100.000000 
396 	 35.382000 	 100.000000 
397 	 35.376000 	 100.000000 
398 	 35.293000 	 100.000000 
399 	 35.355000 	 100.000000 
400 	 35.430000 	 100.000000 
401 	 35.526000 	 100.000000 
402 	 35.584000 	 100.000000 
403 	 35.594000 	 100.000000 
404 	 35.631000 	 100.000000 
405 	 35.704000 	 100.000000 
406 	 35.722000 	 100.000000 
407 	 35.700000 	 100.000000 
408 	 35.702000 	 100.000000 
409 	 35.810000 	 100.000000 
410 	 35.855000 	 100.000000 
411 	 35.926000 	 100.000000 
412 	 36.004000 	 100.000000 
413 	 36.090000 	 100.000000 
414 	 36.118000 	 100.000000 
415 	 36.142000 	 100.000000 
416 	 36.110000 	 100.000000 
417 	 36.105000 	 100.000000 
418 	 36.088000 	 100.000000 
419 	 36.027000 	 100.000000 
420 	 36.067000 	 100.000000 
421 	 36.089000 	 100.000000 
422 	 36.178000 	 100.000000 
423 	 36.224000 	 100.000000 
424 	 36.275000 	 100.000000 
425 	 36.139000 	 100.000000 
426 	 36.128000 	 100.000000 
427 	 36.074000 	 100.000000 
428 	 36.057000 	 100.000000 
429 	 36.107000 	 100.000000 
430 	 36.093000 	 100.000000 
431 	 36.035000 	 100.000000 
432 	 36.005000 	 100.000000 
433 	 36.057000 	 100.000000 
434 	 36.116000 	 100.000000 
435 	 36.135000 	 100.000000 
436 	 36.150000 	 100.000000 
437 	 36.317000 	 100.000000 
438 	 36.373000 	 100.000000 
439 	 36.386000 	 100.000000 
440 	 36.465000 	 100.000000 
441 	 36.523000 	 100.000000 
442 	 36.553000 	 100.000000 
443 	 36.677000 	 100.000000 
444 	 36.802000 	 100.000000 
445 	 36.840000 	 100.000000 
446 	 36.820000 	 100.000000 
447 	 36.852000 	 100.000000 
448 	 36.873000 	 100.000000 
449 	 36.842000 	 100.000000 
450 	 36.805000 	 100.000000 
451 	 36.812000 	 100.000000 
452 	 36.733000 	 100.000000 
453 	 36.683000 	 100.000000 
454 	 36.691000 	 100.000000 
455 	 36.795000 	 100.000000 
456 	 36.942000 	 100.000000 
457 	 36.989000 	 100.000000 
458 	 36.968000 	 100.000000 
459 	 36.957000 	 100.000000 
460 	 37.287000 	 100.000000 
461 	 37.456000 	 100.000000 
462 	 37.568000 	 100.000000 
463 	 37.464000 	 100.000000 
464 	 37.315000 	 100.000000 
465 	 37.291000 	 100.000000 
466 	 37.285000 	 100.000000 
467 	 37.260000 	 100.000000 
468 	 37.226000 	 100.000000 
469 	 37.224000 	 100.000000 
470 	 37.181000 	 100.000000 
471 	 37.113000 	 100.000000 
472 	 37.264000 	 100.000000 
473 	 37.251000 	 100.000000 
474 	 37.183000 	 100.000000 
475 	 37.334000 	 100.000000 
476 	 37.430000 	 100.000000 
477 	 37.353000 	 100.000000 
478 	 37.453000 	 100.000000 
479 	 37.608000 	 100.000000 
480 	 37.627000 	 100.000000 
481 	 37.643000 	 100.000000 
482 	 37.655000 	 100.000000 
483 	 37.814000 	 100.000000 
484 	 37.785000 	 100.000000 
485 	 37.656000 	 100.000000 
486 	 37.870000 	 100.000000 
487 	 38.030000 	 100.000000 
488 	 37.949000 	 100.000000 
489 	 37.920000 	 100.000000 
490 	 37.916000 	 100.000000 
491 	 37.842000 	 100.000000 
492 	 37.814000 	 100.000000 
493 	 37.775000 	 100.000000 
494 	 37.820000 	 100.000000 
495 	 37.770000 	 100.000000 
496 	 37.722000 	 100.000000 
497 	 37.718000 	 100.000000 
498 	 37.755000 	 100.000000 
499 	 37.921000 	 100.000000 
500 	 37.896000 	 100.000000 
501 	 37.722000 	 100.000000 
502 	 37.729000 	 100.000000 
503 	 37.742000 	 100.000000 
504 	 37.869000 	 100.000000 
505 	 37.968000 	 100.000000 
506 	 38.007000 	 100.000000 
507 	 38.139000 	 100.000000 
508 	 38.286000 	 100.000000 
509 	 38.321000 	 100.000000 
510 	 38.420000 	 100.000000 
511 	 38.412000 	 100.000000 
512 	 38.377000 	 100.000000 
513 	 38.407000 	 100.000000 
514 	 38.375000 	 100.000000 
515 	 38.340000 	 100.000000 
516 	 38.335000 	 100.000000 
517 	 38.343000 	 100.000000 
518 	 38.460000 	 100.000000 
519 	 38.436000 	 100.000000 
520 	 38.410000 	 100.000000 
521 	 38.338000 	 100.000000 
522 	 38.320000 	 100.000000 
523 	 38.332000 	 100.000000 
524 	 38.355000 	 100.000000 
525 	 38.441000 	 100.000000 
526 	 38.502000 	 100.000000 
527 	 38.433000 	 100.000000 
528 	 38.557000 	 100.000000 
529 	 38.563000 	 100.000000 
530 	 38.616000 	 100.000000 
531 	 38.766000 	 100.000000 
532 	 38.724000 	 100.000000 
533 	 38.693000 	 100.000000 
534 	 38.763000 	 100.000000 
535 	 38.835000 	 100.000000 
536 	 38.831000 	 100.000000 
537 	 38.879000 	 100.000000 
538 	 38.959000 	 100.000000 
539 	 39.021000 	 100.000000 
540 	 38.980000 	 100.000000 
541 	 39.007000 	 100.000000 
542 	 38.985000 	 100.000000 
543 	 38.870000 	 100.000000 
544 	 38.979000 	 100.000000 
545 	 39.182000 	 100.000000 
546 	 39.089000 	 100.000000 
547 	 39.074000 	 100.000000 
548 	 39.180000 	 100.000000 
549 	 39.209000 	 100.000000 
550 	 39.164000 	 100.000000 
551 	 39.081000 	 100.000000 
552 	 39.045000 	 100.000000 
553 	 39.094000 	 100.000000 
554 	 39.081000 	 100.000000 
555 	 39.033000 	 100.000000 
556 	 39.017000 	 100.000000 
557 	 39.196000 	 100.000000 
558 	 39.203000 	 100.000000 
559 	 39.111000 	 100.000000 
560 	 39.192000 	 100.000000 
561 	 39.351000 	 100.000000 
562 	 39.323000 	 100.000000 
563 	 39.304000 	 100.000000 
564 	 39.335000 	 100.000000 
565 	 39.350000 	 100.000000 
566 	 39.310000 	 100.000000 
567 	 39.237000 	 100.000000 
568 	 39.175000 	 100.000000 
569 	 39.222000 	 100.000000 
570 	 39.327000 	 100.000000 
571 	 39.355000 	 100.000000 
572 	 39.515000 	 100.000000 
573 	 39.672000 	 100.000000 
574 	 39.732000 	 100.000000 
575 	 39.593000 	 100.000000 
576 	 39.473000 	 100.000000 
577 	 39.451000 	 100.000000 
578 	 39.397000 	 100.000000 
579 	 39.779000 	 100.000000 
580 	 39.894000 	 52.839000 
581 	 39.879000 	 60.230000 
582 	 39.733000 	 100.000000 
583 	 39.654000 	 100.000000 
584 	 39.523000 	 100.000000 
585 	 39.543000 	 100.000000 
586 	 39.598000 	 100.000000 
587 	 39.564000 	 100.000000 
588 	 39.552000 	 100.000000 
589 	 39.614000 	 100.000000 
590 	 39.776000 	 100.000000 
591 	 39.777000 	 100.000000 
592 	 39.708000 	 100.000000 
593 	 39.798000 	 100.000000 
594 	 39.876000 	 61.912000 
595 	 39.961000 	 19.014000 
596 	 39.924000 	 37.620000 
597 	 39.906000 	 46.909000 
598 	 39.997000 	 1.194000 
599 	 40.016000 	 0.000000 
600 	 40.075000 	 0.000000 
601 	 40.016000 	 0.000000 
602 	 39.986000 	 6.933000 
603 	 39.909000 	 45.206000 
604 	 39.893000 	 53.051000 
605 	 39.863000 	 68.218000 
606 	 39.964000 	 17.526000 
607 	 39.968000 	 15.672000 
608 	 39.980000 	 9.973000 
609 	 39.946000 	 26.889000 
610 	 40.051000 	 0.000000 
611 	 40.172000 	 0.000000 
612 	 40.192000 	 0.000000 
613 	 40.172000 	 0.000000 
614 	 40.104000 	 0.000000 
615 	 40.009000 	 0.000000 
616 	 39.887000 	 56.366000 
617 	 39.912000 	 43.680000 
618 	 39.945000 	 27.340000 
619 	 39.958000 	 20.658000 
620 	 39.993000 	 3.019000 
621 	 40.010000 	 0.000000 
622 	 40.063000 	 0.000000 
623 	 40.013000 	 0.000000 
624 	 39.797000 	 100.000000 
625 	 39.819000 	 90.261000 
626 	 39.856000 	 71.781000 
627 	 39.825000 	 87.236000 
628 	 39.694000 	 100.000000 
629 	 39.643000 	 100.000000 
630 	 39.643000 	 100.000000 
631 	 39.573000 	 100.000000 
632 	 39.528000 	 100.000000 
633 	 39.522000 	 100.000000 
634 	 39.517000 	 100.000000 
635 	 39.469000 	 100.000000 
636 	 39.474000 	 100.000000 
637 	 39.535000 	 100.000000 
638 	 39.499000 	 100.000000 
639 	 39.417000 	 100.000000 
640 	 39.399000 	 100.000000 
641 	 39.359000 	 100.000000 
642 	 39.415000 	 100.000000 
643 	 39.427000 	 100.000000 
644 	 39.380000 	 100.000000 
645 	 39.438000 	 100.000000 
646 	 39.599000 	 100.000000 
647 	 39.674000 	 100.000000 
648 	 39.617000 	 100.000000 
649 	 39.583000 	 100.000000 
650 	 39.639000 	 100.000000 
651 	 39.630000 	 100.000000 
652 	 39.645000 	 100.000000 
653 	 39.631000 	 100.000000 
654 	 39.364000 	 100.000000 
655 	 39.333000 	 100.000000 
656 	 39.352000 	 100.000000 
657 	 39.281000 	 100.000000 
658 	 39.282000 	 100.000000 
659 	 39.313000 	 100.000000 
660 	 39.422000 	 100.000000 
661 	 39.538000 	 100.000000 
662 	 39.540000 	 100.000000 
663 	 39.560000 	 100.000000 
664 	 39.599000 	 100.000000 
665 	 39.487000 	 100.000000 
666 	 39.423000 	 100.000000 
667 	 39.529000 	 100.000000 
668 	 39.560000 	 100.000000 
669 	 39.499000 	 100.000000 
670 	 39.447000 	 100.000000 
671 	 39.251000 	 100.000000 
672 	 39.291000 	 100.000000 
673 	 39.359000 	 100.000000 
674 	 39.392000 	 100.000000 
675 	 39.498000 	 100.000000 
676 	 39.610000 	 100.000000 
677 	 39.693000 	 100.000000 
678 	 39.789000 	 100.000000 
679 	 39.824000 	 87.570000 
680 	 39.958000 	 20.933000 
681 	 40.037000 	 0.000000 
682 	 39.880000 	 59.982000 
683 	 39.857000 	 71.025000 
684 	 39.799000 	 100.000000 
685 	 39.696000 	 100.000000 
686 	 39.825000 	 87.288000 
687 	 39.843000 	 78.048000 
688 	 39.847000 	 76.305000 
689 	 39.874000 	 62.786000 
690 	 39.898000 	 50.741000 
691 	 39.933000 	 33.414000 
692 	 39.980000 	 9.567000 
693 	 39.950000 	 24.858000 
694 	 39.919000 	 40.487000 
695 	 39.860000 	 69.606000 
696 	 39.820000 	 89.683000 
697 	 39.746000 	 100.000000 
698 	 39.655000 	 100.000000 
699 	 39.645000 	 100.000000 
700 	 39.656000 	 100.000000 
701 	 39.756000 	 100.000000 
702 	 39.753000 	 100.000000 
703 	 39.740000 	 100.000000 
704 	 39.728000 	 100.000000 
705 	 39.734000 	 100.000000 
706 	 39.724000 	 100.000000 
707 	 39.887000 	 56.297000 
708 	 39.946000 	 26.678000 
709 	 40.020000 	 0.000000 
710 	 40.017000 	 0.000000 
711 	 39.953000 	 23.061000 
712 	 39.893000 	 53.239000 
713 	 39.843000 	 78.117000 
714 	 39.840000 	 79.551000 
715 	 39.794000 	 100.000000 
716 	 39.824000 	 87.646000 
717 	 39.840000 	 79.670000 
718 	 39.807000 	 96.311000 
719 	 39.913000 	 43.245000 
720 	 39.912000 	 43.691000 
721 	 39.919000 	 40.104000 
722 	 39.903000 	 48.126000 
723 	 39.944000 	 27.608000 
724 	 40.070000 	 0.000000 
725 	 40.026000 	 0.000000 
726 	 40.001000 	 0.000000 
727 	 40.005000 	 0.000000 
728 	 40.048000 	 0.000000 
729 	 40.136000 	 0.000000 
730 	 39.971000 	 14.270000 
731 	 39.876000 	 61.872000 
732 	 39.880000 	 59.795000 
733 	 39.884000 	 57.878000 
734 	 39.844000 	 77.650000 
735 	 39.832000 	 83.528000 
736 	 39.870000 	 64.798000 
737 	 39.872000 	 63.568000 
738 	 39.883000 	 58.397000 
739 	 39.849000 	 75.115000 
740 	 39.865000 	 67.073000 
741 	 39.895000 	 52.221000 
742 	 39.886000 	 56.545000 
743 	 39.867000 	 66.440000 
744 	 39.856000 	 71.630000 
745 	 39.820000 	 89.931000 
746 	 39.776000 	 100.000000 
747 	 39.789000 	 100.000000 
748 	 39.775000 	 100.000000 
749 	 39.731000 	 100.000000 
750 	 39.681000 	 100.000000 
751 	 39.645000 	 100.000000 
752 	 39.512000 	 100.000000 
753 	 39.549000 	 100.000000 
754 	 39.570000 	 100.000000 
755 	 39.685000 	 100.000000 
756 	 39.684000 	 100.000000 
757 	 39.680000 	 100.000000 
758 	 39.394000 	 100.000000 
759 	 39.335000 	 100.000000 
760 	 39.362000 	 100.000000 
761 	 39.389000 	 100.000000 
762 	 39.478000 	 100.000000 
763 	 39.553000 	 100.000000 
764 	 39.536000 	 100.000000 
765 	 39.408000 	 100.000000 
766 	 39.505000 	 100.000000 
767 	 39.536000 	 100.000000 
768 	 39.504000 	 100.000000 
769 	 39.509000 	 100.000000 
770 	 39.502000 	 100.000000 
771 	 39.544000 	 100.000000 
772 	 39.563000 	 100.000000 
773 	 39.461000 	 100.000000 
774 	 39.445000 	 100.000000 
775 	 39.445000 	 100.000000 
776 	 39.482000 	 100.000000 
777 	 39.544000 	 100.000000 
778 	 39.586000 	 100.000000 
779 	 39.557000 	 100.000000 
780 	 39.561000 	 100.000000 
781 	 39.741000 	 100.000000 
782 	 39.799000 	 100.000000 
783 	 39.554000 	 100.000000 
784 	 39.478000 	 100.000000 
785 	 39.495000 	 100.000000 
786 	 39.562000 	 100.000000 
787 	 39.595000 	 100.000000 
788 	 39.617000 	 100.000000 
789 	 39.706000 	 100.000000 
790 	 39.740000 	 100.000000 
791 	 39.838000 	 80.518000 
792 	 39.929000 	 35.101000 
793 	 39.965000 	 17.257000 
794 	 39.969000 	 15.035000 
795 	 39.942000 	 28.848000 
796 	 39.960000 	 19.819000 
797 	 39.932000 	 33.773000 
798 	 39.860000 	 69.675000 
799 	 39.761000 	 100.000000 
800 	 39.661000 	 100.000000 
801 	 39.668000 	 100.000000 
802 	 39.689000 	 100.000000 
803 	 39.740000 	 100.000000 
804 	 39.742000 	 100.000000 
805 	 39.741000 	 100.000000 
806 	 39.829000 	 85.250000 
807 	 39.827000 	 86.092000 
808 	 39.906000 	 46.833000 
809 	 39.855000 	 72.149000 
810 	 39.895000 	 52.326000 
811 	 39.958000 	 20.629000 
812 	 39.987000 	 6.078000 
813 	 39.995000 	 2.136000 
814 	 39.982000 	 8.508000 
815 	 39.969000 	 15.482000 
816 	 39.934000 	 32.964000 
817 	 39.986000 	 6.775000 
818 	 40.071000 	 0.000000 
819 	 40.075000 	 0.000000 
820 	 39.998000 	 0.593000 
821 	 40.057000 	 0.000000 
822 	 40.064000 	 0.000000 
823 	 40.030000 	 0.000000 
824 	 39.993000 	 3.240000 
825 	 39.969000 	 15.312000 
826 	 39.990000 	 4.957000 
827 	 39.988000 	 5.834000 
828 	 39.989000 	 5.395000 
829 	 39.871000 	 64.022000 
830 	 39.798000 	 100.000000 
831 	 39.714000 	 100.000000 
832 	 39.704000 	 100.000000 
833 	 39.753000 	 100.000000 
834 	 39.789000 	 100.000000 
835 	 39.660000 	 100.000000 
836 	 39.709000 	 100.000000 
837 	 39.708000 	 100.000000 
838 	 39.734000 	 100.000000 
839 	 39.819000 	 90.437000 
840 	 39.766000 	 100.000000 
841 	 39.723000 	 100.000000 
842 	 39.709000 	 100.000000 
843 	 39.660000 	 100.000000 
844 	 39.602000 	 100.000000 
845 	 39.620000 	 100.000000 
846 	 39.588000 	 100.000000 
847 	 39.522000 	 100.000000 
848 	 39.468000 	 100.000000 
849 	 39.320000 	 100.000000 
850 	 39.183000 	 100.000000 
851 	 39.230000 	 100.000000 
852 	 39.285000 	 100.000000 
853 	 39.295000 	 100.000000 
854 	 39.357000 	 100.000000 
855 	 39.471000 	 100.000000 
856 	 39.445000 	 100.000000 
857 	 39.422000 	 100.000000 
858 	 39.428000 	 100.000000 
859 	 39.544000 	 100.000000 
860 	 39.515000 	 100.000000 
861 	 39.566000 	 100.000000 
862 	 39.604000 	 100.000000 
863 	 39.678000 	 100.000000 
864 	 39.742000 	 100.000000 
865 	 39.765000 	 100.000000 
866 	 39.784000 	 100.000000 
867 	 39.776000 	 100.000000 
868 	 39.726000 	 100.000000 
869 	 39.740000 	 100.000000 
870 	 39.717000 	 100.000000 
871 	 39.632000 	 100.000000 
872 	 39.584000 	 100.000000 
873 	 39.467000 	 100.000000 
874 	 39.390000 	 100.000000 
875 	 39.468000 	 100.000000 
876 	 39.544000 	 100.000000 
877 	 39.589000 	 100.000000 
878 	 39.639000 	 100.000000 
879 	 39.703000 	 100.000000 
880 	 39.769000 	 100.000000 
881 	 39.727000 	 100.000000 
882 	 39.672000 	 100.000000 
883 	 39.611000 	 100.000000 
884 	 39.648000 	 100.000000 
885 	 39.699000 	 100.000000 
886 	 39.678000 	 100.000000 
887 	 39.722000 	 100.000000 
888 	 39.616000 	 100.000000 
889 	 39.629000 	 100.000000 
890 	 39.687000 	 100.000000 
891 	 39.796000 	 100.000000 
892 	 39.833000 	 83.423000 
893 	 39.966000 	 16.590000 
894 	 39.957000 	 21.255000 
895 	 39.952000 	 23.573000 
896 	 39.957000 	 21.162000 
897 	 39.926000 	 36.846000 
898 	 39.980000 	 9.534000 
899 	 39.932000 	 33.895000 
900 	 39.903000 	 48.025000 
901 	 39.844000 	 77.938000 
902 	 39.864000 	 67.731000 
903 	 39.920000 	 39.602000 
904 	 39.945000 	 27.040000 
905 	 39.937000 	 31.150000 
906 	 39.946000 	 26.641000 
907 	 39.928000 	 35.768000 
908 	 39.982000 	 8.737000 
909 	 40.082000 	 0.000000 
910 	 39.973000 	 13.164000 
911 	 39.937000 	 31.349000 
912 	 39.971000 	 14.154000 
913 	 39.906000 	 46.644000 
914 	 39.836000 	 81.577000 
915 	 39.814000 	 92.729000 
916 	 39.803000 	 98.028000 
917 	 39.823000 	 88.329000 
918 	 39.854000 	 72.738000 
919 	 39.804000 	 97.593000 
920 	 39.788000 	 100.000000 
921 	 39.776000 	 100.000000 
922 	 39.834000 	 82.616000 
923 	 39.844000 	 77.875000 
924 	 39.759000 	 100.000000 
925 	 39.801000 	 99.048000 
926 	 39.807000 	 96.061000 
927 	 39.796000 	 100.000000 
928 	 39.750000 	 100.000000 
929 	 39.755000 	 100.000000 
930 	 39.836000 	 81.882000 
931 	 39.866000 	 66.606000 
932 	 39.881000 	 59.269000 
933 	 39.823000 	 88.468000 
934 	 39.847000 	 76.130000 
935 	 39.915000 	 42.356000 
936 	 39.936000 	 31.572000 
937 	 39.982000 	 8.924000 
938 	 40.030000 	 0.000000 
939 	 40.014000 	 0.000000 
940 	 40.076000 	 0.000000 
941 	 39.989000 	 5.388000 
942 	 39.945000 	 27.347000 
943 	 39.993000 	 3.139000 
944 	 39.949000 	 25.011000 
945 	 39.977000 	 11.371000 
946 	 40.022000 	 0.000000 
947 	 40.036000 	 0.000000 
948 	 40.056000 	 0.000000 
949 	 40.020000 	 0.000000 
950 	 40.003000 	 0.000000 
951 	 39.982000 	 8.556000 
952 	 39.964000 	 17.587000 
953 	 39.937000 	 31.421000 
954 	 39.822000 	 88.514000 
955 	 39.782000 	 100.000000 
956 	 39.818000 	 90.843000 
957 	 39.804000 	 97.787000 
958 	 39.734000 	 100.000000 
959 	 39.677000 	 100.000000 
960 	 39.649000 	 100.000000 
961 	 39.756000 	 100.000000 
962 	 39.785000 	 100.000000 
963 	 39.745000 	 100.000000 
964 	 39.674000 	 100.000000 
965 	 39.678000 	 100.000000 
966 	 39.657000 	 100.000000 
967 	 39.578000 	 100.000000 
968 	 39.486000 	 100.000000 
969 	 39.478000 	 100.000000 
970 	 39.436000 	 100.000000 
971 	 39.481000 	 100.000000 
972 	 39.461000 	 100.000000 
973 	 39.465000 	 100.000000 
974 	 39.523000 	 100.000000 
975 	 39.563000 	 100.000000 
976 	 39.602000 	 100.000000 
977 	 39.570000 	 100.000000 
978 	 39.520000 	 100.000000 
979 	 39.472000 	 100.000000 
980 	 39.499000 	 100.000000 
981 	 39.508000 	 100.000000 
982 	 39.498000 	 100.000000 
983 	 39.515000 	 100.000000 
984 	 39.524000 	 100.000000 
985 	 39.542000 	 100.000000 
986 	 39.575000 	 100.000000 
987 	 39.647000 	 100.000000 
988 	 39.691000 	 100.000000 
989 	 39.659000 	 100.000000 
990 	 39.707000 	 100.000000 
991 	 39.621000 	 100.000000 
992 	 39.638000 	 100.000000 
993 	 39.651000 	 100.000000 
994 	 39.625000 	 100.000000 
995 	 39.577000 	 100.000000 
996 	 39.622000 	 100.000000 
997 	 39.623000 	 100.000000 
998 	 39.618000 	 100.000000 
999 	 39.589000 	 100.000000 
1000 	 39.481000 	 100.000000 
1001 	 39.497000 	 100.000000 
1002 	 39.488000 	 100.000000 
1003 	 39.401000 	 100.000000 
1004 	 39.383000 	 100.000000 
1005 	 39.430000 	 100.000000 
1006 	 39.445000 	 100.000000 
1007 	 39.569000 	 100.000000 
1008 	 39.662000 	 100.000000 
1009 	 39.721000 	 100.000000 
1010 	 39.703000 	 100.000000 
1011 	 39.741000 	 100.000000 
1012 	 39.779000 	 100.000000 
1013 	 39.810000 	 94.575000 
1014 	 39.806000 	 96.965000 
1015 	 39.772000 	 100.000000 
1016 	 39.817000 	 91.480000 
1017 	 39.890000 	 54.956000 
1018 	 39.832000 	 83.931000 
1019 	 39.864000 	 67.712000 
1020 	 39.861000 	 69.034000 
1021 	 39.864000 	 67.869000 
1022 	 39.903000 	 48.229000 
1023 	 39.929000 	 35.022000 
1024 	 39.972000 	 13.588000 
1025 	 40.048000 	 0.000000 
1026 	 39.966000 	 16.725000 
1027 	 39.954000 	 22.848000 
1028 	 39.871000 	 64.407000 
1029 	 39.891000 	 54.073000 
1030 	 39.978000 	 10.610000 
1031 	 39.992000 	 3.639000 
1032 	 39.988000 	 5.636000 
1033 	 39.992000 	 3.698000 
1034 	 40.000000 	 0.000000 
1035 	 39.973000 	 13.456000 
1036 	 40.052000 	 0.000000 
1037 	 39.984000 	 7.642000 
1038 	 39.915000 	 42.137000 
1039 	 39.976000 	 11.699000 
1040 	 39.919000 	 40.207000 
1041 	 39.935000 	 32.383000 
1042 	 39.929000 	 35.471000 
1043 	 39.905000 	 47.035000 
1044 	 39.935000 	 32.426000 
1045 	 39.894000 	 52.883000 
1046 	 39.898000 	 50.893000 
1047 	 39.888000 	 55.687000 
1048 	 39.854000 	 72.767000 
1049 	 39.858000 	 70.652000 
1050 	 39.905000 	 47.338000 
1051 	 39.995000 	 2.443000 
1052 	 40.084000 	 0.000000 
1053 	 40.080000 	 0.000000 
1054 	 39.928000 	 35.549000 
1055 	 39.797000 	 100.000000 
1056 	 39.833000 	 83.067000 
1057 	 39.928000 	 35.701000 
1058 	 39.966000 	 16.782000 
1059 	 39.937000 	 31.065000 
1060 	 39.920000 	 39.848000 
1061 	 39.866000 	 66.864000 
1062 	 39.860000 	 69.891000 
1063 	 39.824000 	 87.606000 
1064 	 39.809000 	 95.010000 
1065 	 39.772000 	 100.000000 
1066 	 39.793000 	 100.000000 
1067 	 39.802000 	 98.955000 
1068 	 39.821000 	 89.370000 
1069 	 39.806000 	 96.714000 
1070 	 39.763000 	 100.000000 
1071 	 39.659000 	 100.000000 
1072 	 39.615000 	 100.000000 
1073 	 39.584000 	 100.000000 
1074 	 39.643000 	 100.000000 
1075 	 39.631000 	 100.000000 
1076 	 39.636000 	 100.000000 
1077 	 39.609000 	 100.000000 
1078 	 39.585000 	 100.000000 
1079 	 39.588000 	 100.000000 
1080 	 39.588000 	 100.000000 
1081 	 39.667000 	 100.000000 
1082 	 39.712000 	 100.000000 
1083 	 39.600000 	 100.000000 
1084 	 39.535000 	 100.000000 
1085 	 39.581000 	 100.000000 
1086 	 39.569000 	 100.000000 
1087 	 39.546000 	 100.000000 
1088 	 39.475000 	 100.000000 
1089 	 39.385000 	 100.000000 
1090 	 39.362000 	 100.000000 
1091 	 39.457000 	 100.000000 
1092 	 39.476000 	 100.000000 
1093 	 39.523000 	 100.000000 
1094 	 39.474000 	 100.000000 
1095 	 39.436000 	 100.000000 
1096 	 39.394000 	 100.000000 
1097 	 39.419000 	 100.000000 
1098 	 39.423000 	 100.000000 
1099 	 39.478000 	 100.000000 
1100 	 39.503000 	 100.000000 
1101 	 39.508000 	 100.000000 
1102 	 39.558000 	 100.000000 
1103 	 39.613000 	 100.000000 
1104 	 39.660000 	 100.000000 
1105 	 39.679000 	 100.000000 
1106 	 39.653000 	 100.000000 
1107 	 39.641000 	 100.000000 
1108 	 39.642000 	 100.000000 
1109 	 39.667000 	 100.000000 
1110 	 39.680000 	 100.000000 
1111 	 39.637000 	 100.000000 
1112 	 39.634000 	 100.000000 
1113 	 39.578000 	 100.000000 
1114 	 39.559000 	 100.000000 
1115 	 39.609000 	 100.000000 
1116 	 39.703000 	 100.000000 
1117 	 39.671000 	 100.000000 
1118 	 39.597000 	 100.000000 
1119 	 39.625000 	 100.000000 
1120 	 39.669000 	 100.000000 
1121 	 39.755000 	 100.000000 
1122 	 39.754000 	 100.000000 
1123 	 39.837000 	 81.289000 
1124 	 39.960000 	 19.569000 
1125 	 39.984000 	 7.913000 
1126 	 39.941000 	 29.087000 
1127 	 39.981000 	 9.128000 
1128 	 40.071000 	 0.000000 
1129 	 40.076000 	 0.000000 
1130 	 40.059000 	 0.000000 
1131 	 39.973000 	 13.076000 
1132 	 39.952000 	 23.981000 
1133 	 39.906000 	 46.787000 
1134 	 39.963000 	 18.478000 
1135 	 40.054000 	 0.000000 
1136 	 40.102000 	 0.000000 
1137 	 40.124000 	 0.000000 
1138 	 40.067000 	 0.000000 
1139 	 40.057000 	 0.000000 
1140 	 40.060000 	 0.000000 
1141 	 40.010000 	 0.000000 
1142 	 39.984000 	 7.648000 
1143 	 39.976000 	 11.894000 
1144 	 39.946000 	 26.638000 
1145 	 39.923000 	 38.192000 
1146 	 39.973000 	 13.424000 
1147 	 40.038000 	 0.000000 
1148 	 40.156000 	 0.000000 
1149 	 40.155000 	 0.000000 
1150 	 40.151000 	 0.000000 
1151 	 40.057000 	 0.000000 
1152 	 39.997000 	 1.352000 
1153 	 39.999000 	 0.372000 
1154 	 39.955000 	 22.008000 
1155 	 39.898000 	 50.703000 
1156 	 39.887000 	 56.121000 
1157 	 39.871000 	 64.029000 
1158 	 39.897000 	 51.002000 
1159 	 39.919000 	 40.420000 
1160 	 39.897000 	 51.078000 
1161 	 39.879000 	 60.159000 
1162 	 39.844000 	 77.755000 
1163 	 39.792000 	 100.000000 
1164 	 39.728000 	 100.000000 
1165 	 39.783000 	 100.000000 
1166 	 39.832000 	 83.511000 
1167 	 39.841000 	 79.124000 
1168 	 39.792000 	 100.000000 
1169 	 39.689000 	 100.000000 
1170 	 39.664000 	 100.000000 
1171 	 39.661000 	 100.000000 
1172 	 39.616000 	 100.000000 
1173 	 39.648000 	 100.000000 
1174 	 39.554000 	 100.000000 
1175 	 39.487000 	 100.000000 
1176 	 39.396000 	 100.000000 
1177 	 39.310000 	 100.000000 
1178 	 39.284000 	 100.000000 
1179 	 39.275000 	 100.000000 
1180 	 39.257000 	 100.000000 
1181 	 39.208000 	 100.000000 
1182 	 39.175000 	 100.000000 
1183 	 39.252000 	 100.000000 
1184 	 39.334000 	 100.000000 
1185 	 39.398000 	 100.000000 
1186 	 39.445000 	 100.000000 
1187 	 39.431000 	 100.000000 
1188 	 39.400000 	 100.000000 
1189 	 39.279000 	 100.000000 
1190 	 39.270000 	 100.000000 
1191 	 39.311000 	 100.000000 
1192 	 39.319000 	 100.000000 
1193 	 39.255000 	 100.000000 
1194 	 39.221000 	 100.000000 
1195 	 39.255000 	 100.000000 
1196 	 39.364000 	 100.000000 
1197 	 39.400000 	 100.000000 
1198 	 39.395000 	 100.000000 
1199 	 39.413000 	 100.000000 
